icm4n607_acc,iven_sense,2026-06-11_18-56-46.727_Active 10 Pro
imuTimestamp,accuracy(more=better),acc_x[m/s^2],acc_y[m/s^2],acc_z[m/s^2],utcTimestamp(millis)
2083938322,3,0.555,8.842051,4.34205,1781193409898
2083938332,3,0.53805,8.875951,4.1119504,1781193409909
2083938342,3,0.50205004,8.93595,4.05705,1781193409919
2083938352,3,0.52395004,8.95005,4.2460504,1781193409929
2083938362,3,0.44505003,9.07005,4.512,1781193409940
2083938372,3,0.39705002,9.17805,4.63395,1781193409950
2083938383,3,0.363,9.217951,4.5550504,1781193409961
2083938393,3,0.33705002,9.184951,4.4430003,1781193409969
2083938403,3,0.33705002,9.142051,4.26105,1781193409979
2083938413,3,0.39195,9.040951,4.191,1781193409989
2083938423,3,0.39195,9.027,4.32795,1781193409999
2083938433,3,0.23700002,9.099,4.47795,1781193410010
2083938443,3,0.246,9.007951,4.7299504,1781193410020
2083938453,3,0.25995,8.89995,4.9549503,1781193410030
2083938463,3,0.30600002,8.719951,5.09595,1781193410040
2083938473,3,0.28695002,8.6650505,5.118,1781193410049
2083938483,3,0.30105,8.658,4.96005,1781193410060
2083938493,3,0.36600003,8.656051,4.83795,1781193410069
2083938503,3,0.32505003,8.72295,4.79895,1781193410080
2083938514,3,0.29895002,8.727,4.7590504,1781193410090
2083938524,3,0.31800002,8.719951,4.617,1781193410100
2083938534,3,0.294,8.727,4.3560004,1781193410110
2083938544,3,0.31605002,8.719951,4.01595,1781193410121
2083938554,3,0.342,8.706,3.7530003,1781193410131
2083938564,3,0.33,8.74695,3.75795,1781193410141
2083938574,3,0.36105,8.65305,4.0669503,1781193410151
2083938584,3,0.31095,8.64105,4.4380503,1781193410162
2083938594,3,0.31605002,8.577001,4.701,1781193410172
2083938604,3,0.342,8.497951,4.761,1781193410183
2083938614,3,0.38295,8.41605,4.71105,1781193410191
2083938624,3,0.37800002,8.43105,4.62405,1781193410202
2083938634,3,0.34905002,8.493,4.656,1781193410211
2083938645,3,0.25095,8.598001,4.8229504,1781193410221
2083938655,3,0.201,8.72295,5.0989504,1781193410233
2083938665,3,0.17205001,8.809051,5.18505,1781193410241
2083938675,3,0.21300001,8.814,5.142,1781193410252
2083938685,3,0.186,8.842051,4.881,1781193410263
2083938695,3,0.21495001,8.83005,4.44495,1781193410273
2083938705,3,0.26505002,8.811001,4.1719503,1781193410283
2083938715,3,0.25800002,8.814,4.12605,1781193410293
2083938725,3,0.246,8.85,4.48605,1781193410302
2083938735,3,0.22905001,8.854051,4.9549503,1781193410314
2083938745,3,0.21495001,8.883,5.1940503,1781193410323
2083938755,3,0.165,8.995951,5.0869503,1781193410333
2083938765,3,0.124050006,9.08205,4.668,1781193410343
2083938775,3,0.124050006,9.142051,4.263,1781193410353
2083938786,3,0.17400001,9.055051,4.05705,1781193410365
2083938796,3,0.18900001,8.976001,4.05705,1781193410374
2083938806,3,0.162,8.95995,4.32,1781193410385
2083938816,3,0.126,9.03195,4.57905,1781193410395
2083938826,3,0.016050002,9.199051,4.7130003,1781193410404
2083938836,3,-0.009000001,9.312,4.63605,1781193410414
2083938846,3,-0.00705,9.23295,4.5220504,1781193410424
2083938856,3,-0.0139500005,9.18,4.4110503,1781193410433
2083938866,3,-0.010950001,9.108001,4.3660502,1781193410445
2083938876,3,0.01905,9.09105,4.3969502,1781193410454
2083938886,3,-0.0139500005,9.17805,4.4380503,1781193410465
2083938896,3,-0.021000002,9.228001,4.431,1781193410474
2083938906,3,-0.034950003,9.217951,4.4230504,1781193410486
2083938917,3,0.0,9.160951,4.3110003,1781193410496
2083938927,3,0.01905,9.084001,4.2319503,1781193410504
2083938937,3,-0.07395,9.168,4.0690503,1781193410515
2083938947,3,-0.08295,9.23505,3.9469502,1781193410525
2083938957,3,-0.043050002,9.22305,3.9450002,1781193410536
2083938967,3,-0.031050002,9.168,4.04505,1781193410544
2083938977,3,-0.009000001,9.051001,4.24095,1781193410555
2083938987,3,-0.03795,8.95005,4.452,1781193410564
2083938997,3,0.0,8.81805,4.5480003,1781193410575
2083939007,3,0.064050004,8.78505,4.5529504,1781193410584
2083939017,3,0.076050006,8.751,4.5480003,1781193410594
2083939027,3,0.117000006,8.680051,4.51905,1781193410604
2083939037,3,0.10695001,8.674951,4.3660502,1781193410614
2083939047,3,0.126,8.65305,4.23705,1781193410624
2083939058,3,0.10695001,8.766001,4.18905,1781193410634
2083939068,3,0.093,8.964001,4.1410503,1781193410645
2083939078,3,0.081,9.154051,4.02105,1781193410655
2083939088,3,0.102000006,9.19005,3.9060001,1781193410666
2083939098,3,0.105000004,9.123,3.9160502,1781193410675
2083939108,3,0.12900001,9.048,3.9130502,1781193410685
2083939118,3,0.17400001,9.043051,3.9400501,1781193410695
2083939128,3,0.19800001,9.09405,3.9760501,1781193410705
2083939138,3,0.186,9.184951,3.9060001,1781193410715
2083939148,3,0.177,9.23505,3.801,1781193410727
2083939158,3,0.19800001,9.184951,3.66,1781193410735
2083939168,3,0.282,9.004951,3.8440502,1781193410746
2083939178,3,0.23895001,8.955001,4.1410503,1781193410755
2083939189,3,0.22200002,8.9740505,4.45695,1781193410765
2083939199,3,0.25605002,8.983951,4.584,1781193410775
2083939209,3,0.246,9.055051,4.56495,1781193410787
2083939219,3,0.177,9.154051,4.43295,1781193410797
2083939229,3,0.13095,9.216001,4.1599503,1781193410805
2083939239,3,0.112050004,9.288,3.8730001,1781193410815
2083939249,3,0.093,9.340051,3.729,1781193410825
2083939259,3,0.010950001,9.39795,3.7600503,1781193410836
2083939269,3,-0.07395,9.460051,3.7720501,1781193410847
2083939279,3,-0.09,9.417001,3.83205,1781193410855
2083939289,3,-0.109950006,9.369,3.9469502,1781193410866
2083939299,3,-0.08805001,9.336,3.9850502,1781193410876
2083939309,3,-0.033,9.27795,4.0350003,1781193410886
2083939320,3,-0.058950003,9.280951,4.18905,1781193410896
2083939330,3,-0.097950004,9.3,4.36305,1781193410905
2083939340,3,-0.097950004,9.288,4.4950504,1781193410916
2083939350,3,-0.07095,9.240001,4.57695,1781193410926
2083939360,3,-0.055050004,9.22305,4.51695,1781193410936
2083939370,3,-0.141,9.297001,4.40205,1781193410946
2083939380,3,-0.12195001,9.285001,4.2169504,1781193410957
2083939390,3,-0.165,9.345,4.0020003,1781193410966
2083939400,3,-0.23400001,9.417001,3.8419502,1781193410978
2083939410,3,-0.25995,9.43095,3.7410002,1781193410986
2083939420,3,-0.28695002,9.43605,3.72705,1781193410999
2083939430,3,-0.34395,9.45495,3.79395,1781193411008
2083939440,3,-0.40905002,9.477,3.8370001,1781193411019
2083939450,3,-0.40905002,9.46695,3.9520502,1781193411029
2083939461,3,-0.42600003,9.502951,4.0810504,1781193411038
2083939471,3,-0.40395,9.508051,4.1410503,1781193411049
2083939481,3,-0.41400003,9.453,4.09095,1781193411059
2083939491,3,-0.39495003,9.336,3.9970503,1781193411069
2083939501,3,-0.351,9.22305,3.9829502,1781193411079
2083939511,3,-0.30795002,9.172951,4.0740004,1781193411089
2083939521,3,-0.28395,9.166051,4.0740004,1781193411099
2083939531,3,-0.282,9.24195,3.966,1781193411108
2083939541,3,-0.30105,9.313951,3.8869503,1781193411119
2083939551,3,-0.35895002,9.439051,3.72705,1781193411129
2083939561,3,-0.30600002,9.439051,3.5689502,1781193411139
2083939571,3,-0.22005,9.357,3.6670501,1781193411148
2083939581,3,-0.13095,9.20205,3.8890502,1781193411160
2083939592,3,-0.055050004,9.03405,4.11705,1781193411170
2083939602,3,0.034950003,8.884951,4.19805,1781193411179
2083939612,3,0.126,8.79195,4.12605,1781193411190
2083939622,3,0.18105,8.701051,3.9919503,1781193411199
2083939632,3,0.18900001,8.6959505,3.8389502,1781193411209
2083939642,3,0.23205002,8.646001,3.693,1781193411221
2083939652,3,0.22500001,8.58405,3.7549503,1781193411230
2083939662,3,0.14805001,8.541,3.9250503,1781193411242
2083939672,3,0.13800001,8.502001,4.203,1781193411250
2083939682,3,0.12900001,8.44995,4.5,1781193411260
2083939692,3,0.093,8.433001,4.68405,1781193411271
2083939702,3,0.079050004,8.41905,4.737,1781193411281
2083939712,3,0.0139500005,8.44695,4.63605,1781193411290
2083939722,3,-0.043050002,8.39505,4.56195,1781193411301
2083939733,3,-0.078,8.269951,4.4539504,1781193411311
2083939743,3,-0.112050004,8.15505,4.3830004,1781193411320
2083939753,3,-0.15795001,8.080951,4.27005,1781193411331
2083939763,3,-0.21495001,8.0449505,3.9949503,1781193411341
2083939773,3,-0.23700002,7.9159503,3.4939501,1781193411350
2083939783,3,-0.13800001,7.66695,3.075,1781193411361
2083939793,3,-0.13395001,7.5780005,2.77095,1781193411371
2083939803,3,-0.29895002,7.6429505,2.8500001,1781193411381
2083939813,3,-0.47100002,7.7749505,3.1710002,1781193411391
2083939823,3,-0.58605003,8.10495,3.0679502,1781193411400
2083939833,3,-0.54300004,8.27505,2.9940002,1781193411412
2083939843,3,-0.56205004,8.44695,2.9220002,1781193411422
2083939853,3,-0.66495,8.77095,2.6230502,1781193411432
2083939864,3,-0.6,8.838,1.86195,1781193411441
2083939874,3,-0.62205005,8.674951,0.95205003,1781193411452
2083939884,3,-0.77295005,9.015,0.70500004,1781193411461
2083939894,3,-0.86895007,9.24705,0.45900002,1781193411472
2083939904,3,-0.65805006,8.73495,0.54705,1781193411483
2083939914,3,-0.23895001,7.9690504,0.59505004,1781193411492
2083939924,3,0.18405001,7.2649503,0.28905,1781193411502
2083939934,3,0.14595,7.0609503,-0.19395001,1781193411512
2083939944,3,-0.078,7.07805,-0.77805007,1781193411522
2083939954,3,-0.09,6.8700004,-1.33395,1781193411532
2083939964,3,0.15300001,6.135,-1.6380001,1781193411542
2083939974,3,0.25800002,5.98395,-2.0299501,1781193411553
2083939984,3,-0.078,6.4890003,-2.9310002,1781193411563
2083939995,3,-0.20805001,6.5490003,-3.354,1781193411573
2083940005,3,-0.043050002,6.38595,-3.3780003,1781193411583
2083940015,3,-0.37800002,5.9620504,-3.8140502,1781193411593
2083940025,3,-0.43995002,5.622,-3.867,1781193411603
2083940035,3,-0.00405,5.5020003,-4.15905,1781193411613
2083940045,3,0.057000004,5.89305,-4.3219504,1781193411623
2083940055,3,-0.17205001,6.5460005,-4.0750504,1781193411633
2083940065,3,-0.23895001,6.87405,-3.8140502,1781193411643
2083940075,3,-0.102000006,6.8260503,-3.5410502,1781193411653
2083940085,3,0.094950005,6.8029504,-3.4789503,1781193411663
2083940095,3,0.112050004,7.1740503,-3.31095,1781193411673
2083940105,3,-0.50895,8.023951,-3.6750002,1781193411683
2083940115,3,-1.182,8.727,-3.45,1781193411693
2083940125,3,-1.06305,8.689051,-2.57205,1781193411703
2083940136,3,-0.40395,8.19795,-1.7170501,1781193411712
2083940146,3,0.19095,7.90605,-0.96495,1781193411723
2083940156,3,0.30105,8.25105,-0.34695002,1781193411734
2083940166,3,0.034950003,9.204,0.291,1781193411744
2083940176,3,0.097950004,10.056001,0.86595005,1781193411755
2083940186,3,0.60795003,10.542001,1.40205,1781193411763
2083940196,3,1.041,10.995001,1.7230501,1781193411774
2083940206,3,1.4170501,11.280001,2.0029502,1781193411786
2083940216,3,1.434,11.682,2.3719501,1781193411795
2083940226,3,1.21605,11.991,2.3740501,1781193411805
2083940236,3,1.233,12.028951,2.19,1781193411814
2083940246,3,1.848,11.731951,1.7899501,1781193411826
2083940256,3,1.5289501,11.397,0.92505,1781193411835
2083940267,3,1.3930501,11.383051,0.94005007,1781193411845
2083940277,3,1.539,11.823001,0.95205003,1781193411854
2083940287,3,1.1080501,12.75195,0.50895,1781193411865
2083940297,3,0.78000003,13.473001,-0.38595003,1781193411874
2083940307,3,0.84000003,13.285951,-1.02705,1781193411886
2083940317,3,1.2229501,13.090051,-0.99405,1781193411894
2083940327,3,1.16805,13.177951,-0.9670501,1781193411907
2083940337,3,1.06005,13.20705,-1.1590501,1781193411915
2083940347,3,1.04595,13.008,-1.5109501,1781193411926
2083940357,3,0.897,13.224001,-1.485,1781193411934
2083940367,3,0.82095003,13.73595,-1.5010501,1781193411945
2083940377,3,1.0890001,13.765051,-1.6519501,1781193411954
2083940387,3,1.3450501,13.453951,-1.9710001,1781193411964
2083940398,3,1.47195,13.209001,-1.7839501,1781193411975
2083940408,3,1.6060501,13.02,-1.14195,1781193411985
2083940418,3,1.3980001,12.964951,-0.34995002,1781193411995
2083940428,3,1.1770501,12.774,0.21405001,1781193412005
2083940438,3,0.98100007,12.71895,0.43005002,1781193412015
2083940448,3,0.684,13.02,0.34800002,1781193412025
2083940458,3,0.66495,12.90795,0.109050006,1781193412035
2083940468,3,0.94995004,12.25695,-0.052950002,1781193412045
2083940478,3,1.07505,11.775001,-0.14895001,1781193412055
2083940488,3,1.21095,11.457001,-0.24405001,1781193412065
2083940498,3,1.2780001,11.233951,-0.40005,1781193412075
2083940508,3,1.11,11.241,-0.51495004,1781193412085
2083940518,3,0.96000004,11.26305,-0.67995006,1781193412095
2083940528,3,0.85395,11.092951,-0.89805007,1781193412105
2083940539,3,0.94005007,10.66695,-0.85005003,1781193412117
2083940549,3,1.1179501,10.269,-0.59400004,1781193412126
2083940559,3,1.33095,9.835951,-0.273,1781193412136
2083940569,3,1.4500501,9.427051,-0.02205,1781193412145
2083940579,3,1.5769501,9.052951,0.135,1781193412155
2083940589,3,1.7350501,8.69205,-0.13905,1781193412166
2083940599,3,1.9270501,8.32005,-0.30900002,1781193412178
2083940609,3,2.18295,7.90605,-0.40995002,1781193412185
2083940619,3,2.2999501,7.7820005,-0.441,1781193412195
2083940629,3,2.29095,7.9590006,-0.333,1781193412206
2083940639,3,2.3080502,8.25105,0.03705,1781193412215
2083940649,3,2.319,8.610001,0.38205,1781193412225
2083940659,3,2.2069502,8.908951,0.633,1781193412236
2083940670,3,2.25195,8.799001,0.31305,1781193412246
2083940680,3,2.394,8.46195,-0.105000004,1781193412255
2083940690,3,2.3700001,8.14605,-0.68205005,1781193412265
2083940700,3,2.25,7.90605,-1.4989501,1781193412276
2083940710,3,2.118,7.8300004,-1.8409501,1781193412286
2083940720,3,2.14695,7.7749505,-1.8919501,1781193412296
2083940730,3,2.1709502,8.14095,-1.33605,1781193412306
2083940740,3,2.02305,9.118051,-0.51000005,1781193412318
2083940750,3,1.74195,10.255051,-0.273,1781193412328
2083940760,3,1.77795,10.99695,-0.37800002,1781193412338
2083940770,3,2.16405,11.316001,-0.44805002,1781193412348
2083940780,3,2.1420002,11.562,-0.58695,1781193412358
2083940790,3,2.0080502,11.502001,-0.57195,1781193412367
2083940800,3,1.8409501,11.347051,-0.546,1781193412378
2083940811,3,1.6200001,11.22,-0.51000005,1781193412389
2083940821,3,1.4170501,11.056951,0.030000001,1781193412399
2083940831,3,1.2349501,11.292001,0.59505004,1781193412408
2083940841,3,1.2970501,11.538,0.87495005,1781193412419
2083940851,3,1.4670001,11.674951,0.93705004,1781193412428
2083940861,3,1.6900501,11.46405,0.693,1781193412439
2083940871,3,1.7569501,11.265,0.51795,1781193412448
2083940881,3,1.7659501,10.5709505,0.15195,1781193412459
2083940891,3,1.7809501,10.07295,-0.41895002,1781193412469
2083940901,3,1.6350001,9.43395,-1.125,1781193412480
2083940911,3,1.5460501,8.814,-1.6189501,1781193412491
2083940921,3,1.2709501,8.392051,-1.2570001,1781193412499
2083940931,3,1.11,8.30595,-0.81195,1781193412510
2083940942,3,1.149,8.067,-0.58695,1781193412520
2083940952,3,1.06305,7.7430005,-0.30900002,1781193412530
2083940962,3,0.82095003,7.7239504,0.135,1781193412540
2083940972,3,0.72300005,7.8870006,0.079950005,1781193412550
2083940982,3,0.94305,7.90395,-0.47205,1781193412560
2083940992,3,1.1770501,7.8679504,-1.07295,1781193412570
2083941002,3,1.3039501,7.8490505,-1.6110001,1781193412579
2083941012,3,1.4460001,7.6909504,-1.9900501,1781193412590
2083941022,3,1.5490501,7.6330504,-1.9080001,1781193412600
2083941032,3,1.4100001,7.6639504,-1.65495,1781193412612
2083941042,3,1.10595,7.6789503,-1.1179501,1781193412621
2083941052,3,0.77295005,7.7790003,-0.06705,1781193412631
2083941062,3,0.49005002,7.8780003,0.79905003,1781193412641
2083941073,3,0.45705003,7.7700005,1.2220501,1781193412651
2083941083,3,0.52095,7.8460503,1.66005,1781193412661
2083941093,3,0.39495003,8.059051,1.914,1781193412671
2083941103,3,0.177,8.277,2.0080502,1781193412681
2083941113,3,-0.045,8.304001,1.57395,1781193412691
2083941123,3,-0.141,8.41395,1.19805,1781193412701
2083941133,3,-0.29205,8.953051,1.1050501,1781193412711
2083941143,3,-0.12900001,9.29205,0.46605003,1781193412721
2083941153,3,0.19800001,9.481951,-0.058050003,1781193412731
2083941163,3,0.43800002,9.867001,-0.105000004,1781193412742
2083941173,3,0.58605003,10.212001,-0.50505,1781193412751
2083941183,3,0.29895002,10.722,-1.2379501,1781193412762
2083941193,3,-0.09,11.182051,-1.6570501,1781193412770
2083941203,3,-0.14595,11.03295,-1.57305,1781193412782
2083941214,3,-0.26805001,10.87005,-1.14195,1781193412792
2083941224,3,-0.55695003,10.944,-0.74505,1781193412801
2083941234,3,-0.84900004,11.023951,-0.52905005,1781193412813
2083941244,3,-1.0669501,11.17695,-0.42900002,1781193412822
2083941254,3,-1.1149501,11.538,0.054,1781193412832
2083941264,3,-0.60300004,11.2560005,-0.165,1781193412842
2083941274,3,0.045,10.839001,-0.74505,1781193412852
2083941284,3,-0.201,11.20995,-1.6710001,1781193412862
2083941294,3,-0.79005,11.554951,-2.6550002,1781193412873
2083941304,3,-1.2970501,11.686951,-3.0529501,1781193412882
2083941314,3,-2.1060002,12.3,-3.0220501,1781193412893
2083941324,3,-2.7550502,12.687,-2.358,1781193412902
2083941334,3,-2.63295,16.987051,4.23705,1781193412913
2083941345,3,-0.24405001,26.647951,11.5990505,1781193412923
2083941355,3,3.5740502,13.411051,-3.7830002,1781193412933
2083941365,3,2.25195,14.446951,-2.229,1781193412943
2083941375,3,0.95505005,13.2289505,-0.216,1781193412954
2083941385,3,0.33495003,10.909051,-0.96000004,1781193412963
2083941395,3,-0.82095003,10.70505,-2.6479502,1781193412973
2083941405,3,-1.9440001,11.577001,-3.627,1781193412983
2083941415,3,-2.394,11.634001,-3.4960501,1781193412993
2083941425,3,-2.7960002,11.62005,-3.1920002,1781193413003
2083941435,3,-3.22005,11.809051,-3.18,1781193413013
2083941445,3,-3.7680001,12.355051,-3.6010501,1781193413023
2083941455,3,-3.5119503,11.50695,-3.2610002,1781193413033
2083941465,3,-2.331,9.493951,-2.63895,1781193413043
2083941475,3,-1.4980501,7.8750005,-2.5159502,1781193413054
2083941486,3,-1.06005,7.2289505,-2.232,1781193413063
2083941496,3,-0.88305,7.2690005,-1.56105,1781193413074
2083941506,3,-0.82800007,7.4560504,-1.0200001,1781193413084
2083941516,3,-0.70305,7.4730005,-0.726,1781193413093
2083941526,3,-0.44700003,7.4560504,-0.82395005,1781193413104
2083941536,3,-0.38295,8.398951,-0.67305005,1781193413114
2083941546,3,-0.18900001,9.68295,0.19005,1781193413124
2083941556,3,-0.23205002,10.21905,0.44895002,1781193413134
2083941566,3,-0.33900002,10.317,0.07095,1781193413144
2083941576,3,-0.28695002,9.754951,-0.71400005,1781193413153
2083941586,3,-0.29895002,8.884951,-1.9780501,1781193413165
2083941596,3,-0.39900002,8.091001,-3.3709502,1781193413174
2083941606,3,-0.38505003,7.0870504,-4.176,1781193413184
2083941647,3,0.055050004,2.26095,-7.6860003,1781193413223
2083941657,3,-1.33095,8.93805,-16.44405,1781193413233
2083941667,3,-0.20805001,4.67595,-3.9600003,1781193413243
2083941677,3,0.46605003,2.7540002,-1.044,1781193413253
2083941687,3,0.71805006,2.77305,0.064050004,1781193413263
2083941697,3,-3.801,34.348053,1.9450501,1781193413275
2083941707,3,-10.986,78.65505,4.4710503,1781193413283
2083941717,3,1.2250501,2.29395,-2.08305,1781193413295
2083941727,3,2.9560502,-5.1270003,6.01305,1781193413305
2083941737,3,2.4420002,-3.48705,2.8650002,1781193413315
2083941748,3,1.86705,-2.04495,-0.052950002,1781193413325
2083941758,3,1.2090001,-0.19995001,-3.3040502,1781193413335
2083941768,3,0.744,3.9199502,-6.22305,1781193413345
2083941778,3,0.42600003,6.714,-4.3720503,1781193413355
2083941788,3,-0.033,30.06195,-3.5269501,1781193413365
2083941798,3,-0.6,26.149952,-3.8809502,1781193413375
2083941808,3,1.08405,5.4,-3.72795,1781193413386
2083941818,3,0.55005,0.00795,-3.2629502,1781193413396
2083941828,3,0.246,4.281,-2.9209502,1781193413406
2083941838,3,0.13800001,10.927951,-1.9729501,1781193413414
2083941848,3,-0.72495,15.400051,-1.10595,1781193413426
2083941858,3,-0.57195,11.99295,-1.473,1781193413434
2083941868,3,-0.07095,7.1929502,-2.5519502,1781193413444
2083941878,3,0.25800002,8.067,-3.5650501,1781193413454
2083941889,3,-0.010950001,10.891951,-3.144,1781193413465
2083941899,3,-0.08295,10.497001,-1.8510001,1781193413475
2083941909,3,-0.31800002,9.823951,-1.554,1781193413484
2083941919,3,-0.56700003,9.90795,-1.6999501,1781193413495
2083941929,3,-0.55695003,9.70005,-2.4520502,1781193413507
2083941939,3,-0.25095,9.814051,-2.66205,1781193413515
2083941949,3,0.021000002,9.972,-2.3080502,1781193413525
2083941959,3,-0.043050002,9.55605,-1.59195,1781193413536
2083941969,3,-0.20505,9.71595,-1.149,1781193413545
2083941979,3,-0.26505002,10.18305,-1.4629501,1781193413557
2083941989,3,-0.162,9.754951,-2.217,1781193413567
2083941999,3,0.094950005,9.57495,-2.526,1781193413578
2083942009,3,0.20805001,9.759001,-2.4490502,1781193413585
2083942020,3,0.18405001,9.75,-2.25495,1781193413596
2083942030,3,0.16995001,9.77595,-2.193,1781193413605
2083942040,3,0.102000006,9.879001,-2.289,1781193413617
2083942050,3,0.031050002,9.747001,-2.3820002,1781193413626
2083942060,3,-0.016050002,9.726001,-2.28195,1781193413637
2083942070,3,-0.13800001,9.979951,-2.1019502,1781193413647
2083942080,3,-0.17205001,9.955951,-1.8889501,1781193413657
2083942090,3,-0.22005,9.819,-1.8649501,1781193413666
2083942100,3,-0.25305,9.826051,-1.8870001,1781193413677
2083942110,3,-0.25305,9.805051,-2.05695,1781193413687
2083942120,3,-0.17400001,9.7900505,-2.12595,1781193413696
2083942130,3,-0.26295,10.04895,-2.26305,1781193413707
2083942140,3,-0.12900001,9.927,-2.20005,1781193413718
2083942151,3,-0.126,9.726001,-2.184,1781193413727
2083942161,3,-0.23205002,9.774,-2.2669501,1781193413736
2083942171,3,-0.29205,9.802051,-2.43,1781193413748
2083942181,3,-0.30405003,9.87405,-2.56395,1781193413758
2083942191,3,-0.26295,9.90795,-2.631,1781193413766
2083942201,3,-0.19800001,9.90495,-2.70795,1781193413778
2083942211,3,-0.22695,9.91695,-2.67705,1781193413787
2083942221,3,-0.19095,9.802051,-2.5759501,1781193413799
2083942231,3,0.10005,9.714001,-2.95005,1781193413808
2083942241,3,0.42600003,9.86205,-3.5770502,1781193413819
2083942251,3,0.402,10.02,-3.9240003,1781193413829
2083942261,3,0.08295,9.850051,-2.38995,1781193413839
2083942271,3,-0.069000006,9.70005,-1.67595,1781193413849
2083942281,3,-0.36105,9.658951,-0.735,1781193413858
2083942292,3,-0.41805002,9.795,-0.08205,1781193413867
2083942302,3,-0.43800002,10.114051,-0.31605002,1781193413878
2083942312,3,-0.31095,10.08705,-0.69195,1781193413889
2083942322,3,-0.39495003,9.771001,-1.08,1781193413899
2083942332,3,-0.094950005,9.508051,-1.7689501,1781193413912
2083942342,3,0.18105,9.40995,-2.05695,1781193413919
2083942352,3,0.75600004,9.526951,-2.2789502,1781193413928
2083942362,3,0.87600005,9.82905,-2.2360501,1781193413939
2083942372,3,0.90195006,9.63195,-2.2339501,1781193413949
2083942382,3,0.87795,9.58695,-1.9560001,1781193413959
2083942392,3,0.47400004,9.850051,-2.35095,1781193413970
2083942402,3,0.057000004,10.011001,-3.0600002,1781193413979
2083942412,3,-0.14805001,9.943951,-3.03795,1781193413988
2083942423,3,-0.093,9.823951,-2.73705,1781193414000
2083942433,3,-0.20805001,9.92205,-2.36595,1781193414010
2083942443,3,-0.20505,9.964951,-2.05395,1781193414020
2083942453,3,-0.069000006,9.84105,-1.8220501,1781193414030
2083942463,3,-0.23400001,9.85305,-1.7890501,1781193414040
2083942473,3,-0.23700002,9.850051,-1.9249501,1781193414050
2083942483,3,-0.126,9.814051,-2.08095,1781193414059
2083942493,3,-0.0139500005,9.88605,-2.16405,1781193414070
2083942503,3,0.33195,9.81,-2.43705,1781193414079
2083942513,3,0.20805001,9.7570505,-2.6239502,1781193414090
2083942523,3,-0.14295001,10.023001,-2.22,1781193414100
2083942533,3,-0.141,10.02,-1.9540501,1781193414111
2083942543,3,-0.33900002,9.89595,-2.4130502,1781193414120
2083942553,3,-0.33495003,9.88395,-2.38995,1781193414129
2083942564,3,-0.093,9.817051,-2.12895,1781193414141
2083942574,3,0.08595,9.786,-2.0640001,1781193414150
2083942584,3,0.13800001,9.766951,-2.12595,1781193414159
2083942594,3,0.31305,9.783,-2.0299501,1781193414171
2083942604,3,0.27705002,9.817051,-1.9950001,1781193414181
2083942614,3,0.11400001,9.75195,-2.08095,1781193414190
2083942624,3,0.028050002,9.838051,-2.22405,1781193414201
2083942634,3,-0.0139500005,9.91695,-2.35095,1781193414210
2083942644,3,-0.049950004,9.73095,-2.5210502,1781193414222
2083942654,3,-0.351,9.759001,-2.0400002,1781193414231
2083942664,3,-0.53595,10.141951,-1.9440001,1781193414242
2083942674,3,-0.25095,10.01595,-2.94495,1781193414252
2083942684,3,0.33,10.01595,-3.3949502,1781193414260
2083942695,3,0.65295005,9.735001,-3.55605,1781193414271
2083942705,3,0.97605,9.216001,-2.7580502,1781193414280
2083942715,3,1.36905,9.288,-2.904,1781193414290
2083942725,3,1.5700501,9.03195,-2.45895,1781193414301
2083942735,3,1.6009501,9.087001,-1.5130501,1781193414312
2083942745,3,1.3470001,9.558001,-0.59895,1781193414322
2083942755,3,1.1080501,9.91005,-3.63,1781193414331
2083942765,3,0.70605004,9.754951,-3.3330002,1781193414342
2083942775,3,0.62895006,9.321,-2.05395,1781193414352
2083942785,3,0.67200005,9.486,-1.2589501,1781193414363
2083942795,3,0.58605003,10.111051,-0.91200006,1781193414373
2083942805,3,0.49800003,10.405951,-1.0510501,1781193414382
2083942815,3,0.76995003,9.43395,-0.915,1781193414392
2083942826,3,0.59295005,9.08205,-0.95505005,1781193414403
2083942836,3,0.27705002,9.972,-0.88395005,1781193414411
2083942846,3,0.33195,10.5060005,-1.0200001,1781193414423
2083942856,3,0.53805,9.901051,-0.62505,1781193414433
2083942866,3,-0.13395001,9.184951,-0.13905,1781193414442
2083942876,3,-0.57195,9.130051,-1.04205,1781193414454
2083942886,3,-0.52095,8.158051,-1.9990501,1781193414463
2083942896,3,-0.27705002,7.8100505,-2.67,1781193414473
2083942906,3,-0.61200005,8.257951,-2.1790502,1781193414483
2083942916,3,-0.89295006,7.2289505,-1.3789501,1781193414493
2083942926,3,-1.14405,6.2730002,-0.68205005,1781193414503
2083942936,3,-1.19895,5.7250504,-1.9630501,1781193414514
2083942946,3,-1.1850001,4.6480503,-1.848,1781193414523
2083942956,3,-1.0669501,4.59,-1.4970001,1781193414534
2083942967,3,-0.98100007,3.2280002,-1.06305,1781193414544
2083942977,3,-1.06305,3.6730502,-0.201,1781193414554
2083942987,3,-1.3039501,6.084,0.47805002,1781193414564
2083942997,3,-1.575,49.905003,0.37500003,1781193414574
2083943007,3,-1.194,44.362953,2.7910502,1781193414585
2083943017,3,-1.314,1.45395,3.8440502,1781193414595
2083943027,3,-2.2050002,-0.432,4.6200004,1781193414605
2083943037,3,-2.367,0.42000002,1.7950501,1781193414615
2083943047,3,-2.217,3.0889502,-3.0360003,1781193414625
2083943057,3,-1.8769501,5.03595,-4.4749503,1781193414637
2083943067,3,-1.6350001,7.7959504,-2.98305,1781193414645
2083943077,3,-0.6,24.45495,-1.57305,1781193414653
2083943087,3,1.71105,23.209951,2.3809502,1781193414665
2083943098,3,0.82305,4.329,1.5000001,1781193414673
2083943108,3,0.90705,2.5069501,-2.4109502,1781193414683
2083943118,3,1.2610501,6.42705,-4.2499504,1781193414695
2083943128,3,2.77395,11.839951,-3.6109502,1781193414706
2083943138,3,3.21495,11.578951,-2.5789502,1781193414715
2083943148,3,1.3039501,7.9900503,-1.8960001,1781193414726
2083943158,3,0.76995003,7.7700005,-3.01005,1781193414734
2083943168,3,0.96405005,9.89295,-2.3490002,1781193414746
2083943178,3,0.39195,10.909051,-1.9080001,1781193414756
2083943188,3,-0.32505003,10.11795,-1.24995,1781193414766
2083943198,3,-0.675,9.640051,-1.176,1781193414776
2083943208,3,-1.0339501,10.44705,-1.33605,1781193414787
2083943218,3,-1.24905,10.97595,-0.84495,1781193414796
2083943229,3,-1.3950001,10.578,-0.70905006,1781193414804
2083943239,3,-1.55805,10.023001,-1.056,1781193414816
2083943249,3,-1.6470001,10.123051,-1.29795,1781193414826
2083943259,3,-1.3230001,10.552051,-1.02495,1781193414835
2083943269,3,-0.97200006,10.453951,-1.1230501,1781193414846
2083943279,3,-0.61995006,10.233001,-1.26195,1781193414855
2083943289,3,-0.33900002,9.94095,-1.60395,1781193414865
2083943299,3,-0.102000006,9.819,-1.56105,1781193414876
2083943309,3,-0.081,9.939,-1.5850501,1781193414886
2083943319,3,0.00405,9.92205,-1.3620001,1781193414896
2083943329,3,0.010950001,9.754951,-1.4290501,1781193414906
2083943339,3,0.126,9.795,-1.31505,1781193414917
2083943349,3,-0.14295001,10.273951,-1.49205,1781193414927
2083943359,3,-0.27495003,10.257001,-1.71405,1781193414937
2083943370,3,-0.22200002,9.967951,-2.25795,1781193414947
2083943380,3,-0.162,9.92205,-2.5830002,1781193414957
2083943390,3,0.04695,9.726001,-2.9899502,1781193414966
2083943400,3,0.32505003,9.502951,-2.89995,1781193414977
2083943410,3,0.55005,9.340051,-2.667,1781193414986
2083943420,3,0.80595005,9.40005,-2.15505,1781193414997
2083943430,3,0.90495,9.537001,-1.7910001,1781193415006
2083943440,3,0.864,9.606001,-1.6639501,1781193415017
2083943450,3,0.66495,9.573001,-1.6570501,1781193415027
2083943460,3,0.41400003,9.640051,-1.4100001,1781193415037
2083943470,3,0.117000006,9.84105,-1.06605,1781193415047
2083943480,3,-0.25095,10.141951,-0.98205006,1781193415058
2083943490,3,-0.50505,10.281,-0.8880001,1781193415068
2083943501,3,-0.68895006,10.264951,-1.125,1781193415077
2083943511,3,-0.81405,10.18095,-0.98205006,1781193415088
2083943521,3,-0.84705,10.375051,-1.092,1781193415098
2083943531,3,-0.79905003,10.245001,-1.29495,1781193415108
2083943541,3,-0.43005002,9.85995,-1.60395,1781193415117
2083943551,3,-0.08595,9.609,-1.95105,1781193415128
2083943561,3,0.08295,9.723001,-1.91295,1781193415138
2083943571,3,0.34395,10.39605,-1.5109501,1781193415147
2083943581,3,0.60795003,10.95195,-0.65895003,1781193415158
2083943591,3,0.88500005,10.581,-0.50295,1781193415168
2083943601,3,0.78000003,10.22595,-1.08,1781193415178
2083943611,3,0.80205005,10.176001,-2.60295,1781193415189
2083943621,3,0.87105006,5.43795,-2.2410002,1781193415199
2083943631,3,0.81405,6.6829505,-3.0600002,1781193415209
2083943642,3,0.86100006,11.13405,-3.45705,1781193415219
2083943652,3,1.52205,14.895,-3.9600003,1781193415228
2083943662,3,0.23895001,9.802051,-2.5740001,1781193415238
2083943672,3,-0.66705,7.497,-2.7439501,1781193415249
2083943682,3,-1.7400001,9.489,-2.6119502,1781193415259
2083943692,3,-3.0640502,14.902051,-3.69,1781193415268
2083943702,3,-4.7590504,21.12195,-4.9300504,1781193415278
2083943712,3,-5.95905,24.232052,-4.95405,1781193415289
2083943722,3,-5.10195,23.701052,-3.65805,1781193415299
2083943732,3,-1.6680001,20.53305,-2.8830001,1781193415310
2083943742,3,2.36505,13.729051,-2.25105,1781193415319
2083943752,3,4.30905,11.46195,-0.11505,1781193415330
2083943762,3,4.60605,10.71195,-0.78495,1781193415339
2083943773,3,4.36695,10.18095,-2.7220502,1781193415354
2083943783,3,2.901,9.879001,-1.245,1781193415359
2083943793,3,3.1909502,10.461,-4.257,1781193415369
2083943803,3,3.1620002,9.460051,-3.3760502,1781193415379
2083943813,3,3.7920003,8.45505,-2.2480502,1781193415389
2083943823,3,3.6670501,9.13395,-1.2570001,1781193415400
2083943833,3,2.7859502,10.188001,-1.2910501,1781193415409
2083943843,3,2.1019502,11.095051,-1.8679501,1781193415420
2083943853,3,1.6369501,12.016951,-2.5519502,1781193415430
2083943863,3,1.2280501,12.41205,-2.8849502,1781193415440
2083943873,3,0.837,12.205951,-2.9209502,1781193415451
2083943883,3,0.57195,11.799001,-2.7510002,1781193415460
2083943893,3,0.54105,11.34,-2.703,1781193415470
2083943904,3,0.90900004,10.861051,-2.8300502,1781193415481
2083943914,3,1.2060001,10.435051,-2.70795,1781193415491
2083943924,3,1.4239501,10.00605,-2.6239502,1781193415500
2083943934,3,1.5319501,9.726001,-2.112,1781193415511
2083943944,3,1.539,9.594001,-1.3600501,1781193415521
2083943954,3,1.55295,9.429001,-1.4059501,1781193415531
2083943964,3,1.6279501,9.325951,-2.14995,1781193415541
2083943974,3,1.5840001,9.148951,-2.3820002,1781193415551
2083943984,3,1.4670001,9.099,-2.1720002,1781193415561
2083943994,3,1.2400501,9.205951,-2.421,1781193415571
2083944004,3,0.873,9.541051,-2.36595,1781193415580
2083944014,3,0.6,9.640051,-2.47305,1781193415591
2083944024,3,0.44700003,9.726001,-2.39895,1781193415600
2083944034,3,0.45705003,9.453,-1.75995,1781193415611
2083944045,3,0.41595003,9.012,-1.9750501,1781193415622
2083944055,3,0.19605,8.31105,-2.11905,1781193415632
2083944065,3,0.058950003,7.9590006,-1.8889501,1781193415642
2083944075,3,0.01905,8.10705,-1.9420501,1781193415652
2083944085,3,-0.10695001,8.239051,-2.289,1781193415662
2083944095,3,-0.18405001,8.12205,-2.16405,1781193415672
2083944105,3,-0.27705002,8.124001,-2.1330001,1781193415681
2083944115,3,-0.31605002,7.90395,-2.1450002,1781193415692
2083944125,3,-0.39900002,7.5469503,-1.9390501,1781193415702
2083944135,3,-0.42795002,7.45095,-2.15295,1781193415712
2083944145,3,-0.51405,7.2769504,-2.421,1781193415722
2083944155,3,-0.57600003,6.9700503,-2.50395,1781193415732
2083944165,3,-0.54795,6.60405,-2.11395,1781193415742
2083944176,3,-0.49500003,6.1060505,-2.0380502,1781193415753
2083944186,3,-0.51705,5.8570504,-2.052,1781193415762
2083944196,3,-0.57900006,6.0000005,-1.5660001,1781193415773
2083944206,3,-0.54495,7.281,-1.6020001,1781193415784
2083944216,3,-0.92805004,7.9180503,-3.7420502,1781193415794
2083944226,3,-1.434,7.6810503,-2.97405,1781193415804
2083944236,3,-1.4959501,7.4749503,-2.15295,1781193415814
2083944246,3,-1.1179501,6.9990005,-2.1049502,1781193415822
2083944256,3,-0.89295006,6.4819503,-2.01795,1781193415833
2083944266,3,-0.91200006,6.51,-2.05395,1781193415843
2083944276,3,-1.074,6.9340506,-2.7250502,1781193415852
2083944286,3,-1.3450501,7.5760503,-2.91405,1781193415863
2083944296,3,-1.60395,7.9849505,-2.8300502,1781193415874
2083944307,3,-1.7500501,8.253,-2.631,1781193415883
2083944317,3,-1.9600501,8.577001,-2.6580002,1781193415894
2083944327,3,-2.22105,9.382951,-3.01395,1781193415904
2083944337,3,-2.6449502,10.156951,-3.6700501,1781193415914
2083944347,3,-3.08295,10.810051,-3.9430501,1781193415925
2083944357,3,-3.4399502,11.17905,-4.0609503,1781193415934
2083944367,3,-3.5809503,11.16195,-4.42005,1781193415949
2083944377,3,-3.4780502,11.13105,-4.6309505,1781193415958
2083944387,3,-3.24795,10.944,-4.815,1781193415965
2083944397,3,-3.07095,10.909051,-5.04195,1781193415975
2083944407,3,-3.11205,11.389951,-5.22195,1781193415985
2083944417,3,-3.11205,11.706,-5.8440003,1781193415995
2083944427,3,-3.177,11.737051,-6.4879503,1781193416005
2083944437,3,-3.21705,11.63595,-7.176,1781193416015
2083944448,3,-3.2719502,11.227051,-7.602,1781193416025
2083944458,3,-3.24795,10.786051,-7.7310004,1781193416034
2083944468,3,-3.21,10.458,-7.7689505,1781193416046
2083944478,3,-3.25305,10.14,-7.9150505,1781193416055
2083944488,3,-3.5310001,10.108951,-8.056951,1781193416066
2083944498,3,-3.8850002,10.126051,-8.01105,1781193416074
2083944508,3,-4.23,10.21395,-7.7790003,1781193416086
2083944518,3,-4.479,10.36995,-7.5109506,1781193416096
2083944528,3,-4.58895,10.408051,-7.1610003,1781193416106
2083944538,3,-4.5199504,10.147051,-6.81405,1781193416116
2083944548,3,-4.4479504,10.05405,-6.5820003,1781193416124
2083944558,3,-4.4770503,9.987,-6.8710504,1781193416134
2083944568,3,-4.47195,10.14,-7.2019506,1781193416144
2083944579,3,-4.48605,10.2310505,-7.55595,1781193416156
2083944589,3,-4.4550004,10.056001,-7.458,1781193416165
2083944599,3,-4.407,9.901051,-7.209,1781193416176
2083944609,3,-4.39305,9.69705,-7.14405,1781193416186
2083944619,3,-4.374,9.295051,-7.12305,1781193416196
2083944629,3,-4.38105,8.838,-6.90495,1781193416205
2083944639,3,-4.2990003,8.63595,-6.9550505,1781193416215
2083944649,3,-4.49595,8.73495,-7.2379503,1781193416227
2083944659,3,-4.67805,8.976001,-7.3720503,1781193416236
2083944669,3,-4.75005,8.88105,-7.2739506,1781193416246
2083944679,3,-4.6750503,8.365951,-6.8809505,1781193416255
2083944689,3,-4.38105,7.6120505,-6.3160505,1781193416267
2083944699,3,-4.2780004,6.8029504,-5.88495,1781193416278
2083944709,3,-4.25595,6.405,-5.4370503,1781193416286
2083944720,3,-4.3429503,6.2419505,-5.58795,1781193416296
2083944730,3,-4.26405,5.85405,-5.6340003,1781193416307
2083944740,3,-4.374,5.7709503,-5.6719503,1781193416317
2083944750,3,-4.572,6.01695,-6.129,1781193416326
2083944760,3,-5.0080504,6.57495,-7.0030503,1781193416337
2083944770,3,-5.5279503,7.01595,-7.662,1781193416347
2083944780,3,-6.0019503,7.39095,-8.128051,1781193416357
2083944790,3,-6.306,7.41795,-8.370001,1781193416367
2083944800,3,-6.46395,7.22205,-8.66205,1781193416377
2083944810,3,-6.4300504,6.9250503,-9.02595,1781193416387
2083944820,3,-6.3370504,6.36705,-9.345,1781193416398
2083944830,3,-6.2530503,5.67705,-9.370951,1781193416407
2083944840,3,-6.0420003,5.0020504,-8.88,1781193416417
2083944851,3,-5.71005,3.93705,-7.8820505,1781193416427
2083944861,3,-5.355,3.0010502,-6.3760505,1781193416438
2083944871,3,-5.19705,2.26605,-4.611,1781193416448
2083944881,3,-4.8690004,1.81095,-4.68795,1781193416458
2083944891,3,-4.8690004,1.9780501,-5.124,1781193416468
2083944901,3,-4.79505,2.7160501,-5.109,1781193416478
2083944911,3,-4.7899504,3.1630502,-5.2189503,1781193416488
2083944921,3,-4.7400002,2.5549502,-4.887,1781193416499
2083944931,3,-4.52895,2.4379501,-4.48005,1781193416507
2083944941,3,-4.50495,3.20895,-4.8289504,1781193416518
2083944951,3,-4.54605,3.7240503,-5.5810504,1781193416529
2083944961,3,-4.6320004,4.22895,-6.0409503,1781193416538
2083944971,3,-4.78095,4.7650504,-6.2590504,1781193416549
2083944982,3,-4.8960004,5.23005,-6.2920504,1781193416559
2083944992,3,-5.025,5.6340003,-6.5940003,1781193416569
2083945002,3,-5.0389504,5.74905,-6.7110004,1781193416578
2083945012,3,-4.87605,5.70405,-6.8950505,1781193416588
2083945022,3,-4.7590504,5.6509504,-7.4050503,1781193416599
2083945032,3,-4.335,5.0479503,-7.326,1781193416609
2083945042,3,-3.5839503,4.47795,-6.9979506,1781193416618
2083945052,3,-3.25305,3.9820502,-6.5890503,1781193416629
2083945062,3,-3.18105,3.6799502,-6.3949504,1781193416639
2083945072,3,-3.2959502,3.417,-6.12195,1781193416649
2083945082,3,-3.49305,3.3600001,-5.94495,1781193416659
2083945092,3,-3.4999502,3.2730002,-5.49195,1781193416669
2083945102,3,-3.61995,3.7210503,-5.4540005,1781193416679
2083945112,3,-3.8800502,4.071,-5.79195,1781193416690
2083945123,3,-4.0339503,4.2190504,-5.70795,1781193416700
2083945133,3,-3.9520502,4.329,-5.5740004,1781193416709
2083945143,3,-3.8610003,4.68795,-5.6650505,1781193416719
2083945153,3,-4.11,5.289,-5.45895,1781193416729
2083945163,3,-4.58895,5.67,-5.3580003,1781193416739
2083945173,3,-5.13495,5.847,-4.8630004,1781193416750
2083945183,3,-5.8170004,6.762,-5.4160504,1781193416760
2083945193,3,-6.7249503,7.3320003,-6.4840503,1781193416771
2083945203,3,-7.73505,7.41795,-6.7369504,1781193416781
2083945213,3,-8.76,7.5540004,-6.6390004,1781193416790
2083945223,3,-9.5119505,7.6309505,-6.5790005,1781193416800
2083945233,3,-9.76305,7.7359505,-6.675,1781193416811
2083945243,3,-8.96805,7.79895,-6.79995,1781193416821
2083945254,3,-8.16405,7.65495,-6.6780005,1781193416831
2083945264,3,-7.7569504,8.016001,-5.7850504,1781193416841
2083945274,3,-7.4689503,8.056951,-4.353,1781193416849
2083945284,3,-7.2010503,8.071051,-3.2010002,1781193416861
2083945294,3,-7.1580005,8.44695,-2.4420002,1781193416871
2083945304,3,-7.2829504,9.04605,-1.94895,1781193416880
2083945314,3,-7.4689503,8.964001,-2.50005,1781193416891
2083945324,3,-7.7520003,7.6639504,-5.94495,1781193416901
2083945334,3,-8.24505,6.32805,-8.02095,1781193416910
2083945344,3,-8.286,5.9020505,-8.128051,1781193416921
2083945354,3,-8.817,6.984,-3.5629501,1781193416931
2083945364,3,-8.55405,12.87195,-7.4029503,1781193416941
2083945374,3,-6.7510505,14.00205,-7.4560504,1781193416952
2083945385,3,-6.0540004,14.221951,-4.0729504,1781193416962
2083945395,3,-4.335,13.791,1.026,1781193416972
2083945405,3,-2.8819501,12.987,4.6579504,1781193416981
2083945415,3,-1.491,11.265,5.3689504,1781193416992
2083945425,3,-0.66,9.811951,4.5529504,1781193417002
2083945435,3,-0.984,9.09405,3.8250003,1781193417012
2083945445,3,-1.48395,9.3,4.227,1781193417022
2083945455,3,-1.06305,8.919001,2.01495,1781193417032
2083945465,3,-1.1029501,8.70405,1.383,1781193417042
2083945475,3,-1.3470001,9.21105,1.51005,1781193417052
2083945485,3,-1.6489501,9.81,2.01705,1781193417062
2083945495,3,-1.8330001,9.24195,1.8210001,1781193417072
2083945505,3,-1.8070501,8.401951,0.87795,1781193417083
2083945515,3,-1.7659501,7.6789503,0.18300001,1781193417093
2083945526,3,-1.9150501,7.1740503,0.56205004,1781193417101
2083945536,3,-1.9440001,9.11295,-1.4440501,1781193417113
2083945546,3,-2.3479502,10.639951,-1.1850001,1781193417123
2083945556,3,-2.085,10.36695,-2.00895,1781193417134
2083945566,3,-1.31895,9.99195,-2.4019501,1781193417143
2083945576,3,-0.76605004,9.522,-3.55095,1781193417152
2083945586,3,-0.49995002,9.25395,-5.361,1781193417162
2083945596,3,-0.23400001,8.565001,-5.8710003,1781193417173
2083945606,3,-0.094950005,7.7700005,-5.11695,1781193417183
2083945616,3,-0.081,7.9920006,-4.59,1781193417194
2083945626,3,-0.30600002,9.010051,-3.6990001,1781193417203
2083945636,3,-0.28905,9.931951,-2.9569502,1781193417214
2083945646,3,-0.68700004,11.433001,-2.4420002,1781193417224
2083945657,3,-1.11,12.534,-2.121,1781193417234
2083945667,3,-1.1730001,13.120951,-1.55595,1781193417244
2083945677,3,-0.8880001,13.011001,-0.95505005,1781193417255
2083945687,3,-0.294,12.58905,-1.59195,1781193417263
2083945697,3,0.25305,12.18,-1.3740001,1781193417273
2083945707,3,0.73695004,12.108001,-1.30005,1781193417283
2083945717,3,1.00995,12.285001,-1.10595,1781193417293
2083945727,3,1.2709501,12.15795,-1.10595,1781193417302
2083945737,3,1.4580001,11.754001,-1.33395,1781193417314
2083945747,3,1.302,11.36295,-1.45605,1781193417326
2083945757,3,1.02405,11.055,-1.6690501,1781193417334
2083945767,3,0.77295005,10.82505,-1.8769501,1781193417344
2083945777,3,0.48795003,10.798051,-2.085,1781193417355
2083945787,3,-0.16905001,11.12205,-3.1990502,1781193417365
2083945798,3,-0.40695003,10.65495,-3.18195,1781193417373
2083945808,3,-0.52395004,10.84395,-3.9859502,1781193417385
2083945818,3,-0.95505005,10.894051,-4.473,1781193417395
2083945828,3,-0.92100006,10.257001,-4.2450004,1781193417406
2083945838,3,-0.63900006,9.640051,-4.1950502,1781193417414
2083945848,3,-0.49695003,9.13395,-3.34695,1781193417425
2083945858,3,-0.69600004,9.1369505,-3.4120502,1781193417434
2083945868,3,-0.9670501,9.1699505,-3.58695,1781193417446
2083945878,3,-1.16805,9.156,-3.76095,1781193417455
2083945888,3,-1.2919501,9.24705,-3.7140002,1781193417465
2083945898,3,-1.0890001,9.142051,-3.0889502,1781193417475
2083945908,3,-0.90705,9.28995,-2.29605,1781193417484
2083945918,3,-0.51405,8.854051,-1.815,1781193417495
2083945929,3,-0.025950002,8.54595,-1.7530501,1781193417505
2083945939,3,0.39705002,8.625,-1.7719501,1781193417515
2083945949,3,0.62895006,8.47395,-1.5160501,1781193417525
2083945959,3,0.51705,8.43105,-1.149,1781193417537
2083945969,3,0.35895002,8.347051,-1.1230501,1781193417545
2083945979,3,0.37305,8.13105,-1.3290001,1781193417556
2083945989,3,0.30600002,8.253,-1.07505,1781193417566
2083945999,3,0.13395001,8.47605,-0.96495,1781193417575
2083946009,3,-0.033,8.613001,-0.84495,1781193417586
2083946019,3,-0.097950004,8.72505,-0.77295005,1781193417595
2083946029,3,-0.31800002,9.26895,-0.86700004,1781193417606
2083946039,3,-0.60495,9.61305,-0.87900007,1781193417616
2083946049,3,-0.85395,10.07295,-0.61995006,1781193417625
2083946060,3,-1.197,10.444051,-0.68205005,1781193417637
2083946070,3,-1.55595,10.87695,-0.81705004,1781193417646
2083946080,3,-1.8330001,11.028001,-0.91005003,1781193417656
2083946090,3,-2.15205,11.067,-0.94095004,1781193417667
2083946100,3,-2.4060001,10.767,-0.81900007,1781193417676
2083946110,3,-2.59695,10.51095,-0.642,1781193417687
2083946120,3,-2.8129501,9.769051,-0.43605003,1781193417697
2083946130,3,-3.22005,10.51395,-0.42600003,1781193417707
2083946140,3,-3.4710002,11.17695,-1.161,1781193417717
2083946150,3,-3.86595,9.573001,-0.54795,1781193417727
2083946160,3,-3.8250003,8.23695,0.17400001,1781193417738
2083946170,3,-4.182,8.91195,0.21705002,1781193417748
2083946180,3,-4.3380003,9.108001,-0.36900002,1781193417757
2083946190,3,-4.44105,9.055051,-0.60795003,1781193417768
2083946201,3,-4.61595,9.187051,-0.51705,1781193417778
2083946211,3,-4.76595,9.09405,-0.33795002,1781193417787
2083946221,3,-4.83795,8.92605,-0.34500003,1781193417796
2083946231,3,-4.6080003,8.743951,-0.46695003,1781193417807
2083946241,3,-3.59805,8.16705,-0.54105,1781193417818
2083946251,3,-3.0229502,8.55,-0.82905006,1781193417828
2083946261,3,-2.77395,10.05405,-1.5640501,1781193417838
2083946271,3,-2.703,12.357,-2.2050002,1781193417848
2083946281,3,-2.2690501,13.267051,-2.4810002,1781193417859
2083946291,3,-1.3399501,13.959001,-3.9,1781193417868
2083946301,3,-0.20295002,14.458951,-5.6839504,1781193417879
2083946311,3,1.09605,14.143051,-6.7159505,1781193417888
2083946321,3,2.53305,13.480051,-6.8950505,1781193417899
2083946332,3,3.9259503,12.336,-6.1579504,1781193417909
2083946342,3,5.00295,10.707001,-5.334,1781193417920
2083946352,3,5.427,9.019951,-4.59705,1781193417929
2083946362,3,4.98705,7.5379505,-3.7369502,1781193417938
2083946372,3,3.8130002,6.3240004,-2.8210502,1781193417949
2083946382,3,2.52495,5.907,-2.32005,1781193417959
2083946392,3,1.5820501,5.7109504,-1.79805,1781193417969
2083946402,3,0.78495,5.6269503,-1.5589501,1781193417979
2083946412,3,0.06705,5.7439504,-1.5160501,1781193417989
2083946422,3,-0.57195,5.8330503,-1.3069501,1781193417999
2083946432,3,-1.1869501,5.73495,-0.85200006,1781193418009
2083946442,3,-1.71105,5.517,-0.57195,1781193418019
2083946452,3,-2.20005,5.71995,-0.44805002,1781193418030
2083946463,3,-2.77905,6.6850505,-0.076950006,1781193418040
2083946473,3,-3.3270001,7.8439503,0.50595003,1781193418049
2083946483,3,-3.7699502,8.646001,0.609,1781193418061
2083946493,3,-4.10295,9.526951,0.77205,1781193418070
2083946503,3,-4.47405,10.594951,0.87000006,1781193418080
2083946513,3,-4.52895,11.58405,0.52995,1781193418090
2083946523,3,-4.2400503,12.108001,-0.22995001,1781193418099
2083946533,3,-3.7030501,12.285001,-0.92700005,1781193418110
2083946543,3,-3.1600502,12.25905,-2.01795,1781193418120
2083946553,3,-2.6569502,12.175051,-3.0190501,1781193418131
2083946563,3,-2.25705,12.205951,-3.9820502,1781193418140
2083946573,3,-1.9560001,12.18,-4.638,1781193418151
2083946583,3,-1.7160001,12.015,-4.9939504,1781193418160
2083946593,3,-1.43595,11.554951,-4.899,1781193418171
2083946604,3,-1.1700001,10.77,-4.49205,1781193418181
2083946614,3,-1.1220001,10.19295,-4.11105,1781193418191
2083946624,3,-1.1770501,10.04895,-4.18305,1781193418200
2083946634,3,-1.0890001,10.07505,-4.46295,1781193418211
2083946644,3,-0.93795,9.879001,-4.767,1781193418221
2083946654,3,-0.69405,9.58695,-4.8120003,1781193418234
2083946664,3,-0.363,9.237,-4.6330504,1781193418240
2083946674,3,-0.08805001,9.07905,-4.3120503,1781193418250
2083946684,3,0.01905,9.19005,-3.6079502,1781193418262
2083946694,3,-0.045,9.285001,-2.6940002,1781193418271
2083946704,3,-0.30105,9.457951,-2.0400002,1781193418281
2083946714,3,-0.47595003,9.68805,-1.7860501,1781193418291
2083946724,3,-0.48795003,9.913051,-1.63995,1781193418300
2083946735,3,-0.34905002,9.858001,-1.65495,1781193418311
2083946745,3,-0.20805001,9.85995,-1.8100501,1781193418321
2083946755,3,-0.45900002,10.02495,-1.9560001,1781193418331
2083946765,3,-0.56895,10.147051,-2.4760501,1781193418342
2083946775,3,-0.63900006,10.135051,-2.9860501,1781193418351
2083946785,3,-0.96405005,10.14,-2.8249502,1781193418362
2083946795,3,-1.1850001,10.281,-2.7270002,1781193418371
2083946805,3,-1.2090001,10.1640005,-2.871,1781193418381
2083946815,3,-1.16505,9.86205,-2.6860502,1781193418392
2083946825,3,-1.16505,9.541051,-2.43495,1781193418402
2083946835,3,-1.2400501,9.313951,-2.334,1781193418411
2083946845,3,-1.338,9.24495,-2.3800502,1781193418423
2083946855,3,-1.4929501,9.285001,-2.1070502,1781193418432
2083946865,3,-1.7860501,9.439051,-2.1360002,1781193418443
2083946876,3,-2.05395,9.30195,-1.7740501,1781193418453
2083946886,3,-2.22405,9.213,-1.52505,1781193418464
2083946896,3,-2.3410501,9.40995,-1.4130001,1781193418473
2083946906,3,-2.47005,9.526951,-1.389,1781193418482
2083946916,3,-2.2759502,9.984,-1.5589501,1781193418492
2083946926,3,-1.9699501,9.73095,-1.7070001,1781193418503
2083946936,3,-1.7209501,9.8890505,-1.7020501,1781193418514
2083946946,3,-1.71105,9.999001,-2.193,1781193418523
2083946956,3,-1.764,9.90495,-1.5949501,1781193418533
2083946966,3,-1.7020501,10.00395,-1.623,1781193418543
2083946976,3,-1.52205,10.012951,-1.3740001,1781193418554
2083946986,3,-1.3810501,10.309951,-1.5780001,1781193418563
2083946996,3,-1.21095,10.324051,-1.9950001,1781193418574
2083947007,3,-0.93795,10.224001,-1.9230001,1781193418585
2083947017,3,-0.70605004,10.243051,-2.04495,1781193418594
2083947027,3,-0.77505004,10.297951,-2.40405,1781193418603
2083947037,3,-0.88995004,10.650001,-3.0859501,1781193418613
2083947047,3,-0.79200006,10.95195,-3.3019502,1781193418626
2083947057,3,-0.46905002,10.48005,-3.1630502,1781193418635
2083947067,3,-0.093,9.670951,-2.9950502,1781193418643
2083947077,3,0.10005,9.288,-2.4400501,1781193418655
2083947087,3,0.29205,9.288,-1.9080001,1781193418665
2083947097,3,0.186,9.357,-1.4290501,1781193418675
2083947107,3,-0.38295,9.939,-1.233,1781193418684
2083947117,3,-1.12695,10.956,-1.5160501,1781193418695
2083947127,3,-1.7070001,11.00205,-1.7119501,1781193418704
2083947138,3,-1.8769501,9.99195,-1.1920501,1781193418714
2083947148,3,-1.4239501,9.184951,-0.83100003,1781193418725
2083947158,3,-1.146,8.896951,-0.41205,1781193418734
2083947168,3,-1.27995,8.517,-0.18705001,1781193418744
2083947178,3,-1.5510001,8.859,-0.51495004,1781193418756
2083947188,3,-1.5340501,8.995951,-1.0510501,1781193418764
2083947198,3,-1.2610501,8.983951,-1.7569501,1781193418774
2083947208,3,-0.85200006,8.751,-2.5429502,1781193418785
2083947218,3,-0.34695002,8.48595,-3.2440503,1781193418794
2083947228,3,0.28395,8.15505,-3.9100502,1781193418806
2083947238,3,0.95205003,7.9180503,-4.34805,1781193418816
2083947248,3,1.5370501,7.90395,-4.66905,1781193418824
2083947258,3,2.07795,8.071051,-4.91505,1781193418836
2083947268,3,2.592,8.28705,-5.3970003,1781193418844
2083947279,3,3.18405,8.754001,-6.4789505,1781193418856
2083947289,3,3.7459502,9.4789505,-7.4719505,1781193418865
2083947299,3,4.28805,10.071,-8.32695,1781193418875
2083947309,3,4.9840503,10.33905,-8.67,1781193418887
2083947319,3,5.5230002,10.353001,-7.9750504,1781193418894
2083947329,3,5.91795,10.312051,-6.8640003,1781193418905
2083947339,3,5.96295,9.90795,-5.4160504,1781193418916
2083947349,3,5.57805,9.525001,-4.0939503,1781193418927
2083947359,3,5.13705,9.27795,-2.83995,1781193418936
2083947369,3,4.61805,9.193951,-1.8679501,1781193418945
2083947379,3,4.2520504,8.998051,-1.2,1781193418957
2083947389,3,3.9480002,8.719951,-0.83100003,1781193418967
2083947399,3,3.6550503,8.398951,-0.79995006,1781193418976
2083947410,3,3.282,8.313001,-0.76605004,1781193418987
2083947420,3,2.9250002,8.20605,-0.63900006,1781193418997
2083947430,3,2.60205,8.050051,-0.216,1781193419005
2083947440,3,2.2450502,8.182051,0.37695003,1781193419017
2083947450,3,1.8840001,8.239051,0.74805003,1781193419027
2083947460,3,1.60395,8.239051,0.62100005,1781193419037
2083947470,3,1.3090501,8.337001,0.351,1781193419047
2083947480,3,1.04595,8.466001,0.25305,1781193419057
2083947490,3,0.76305,8.707951,0.28395,1781193419066
2083947500,3,0.48105,9.04605,0.48000002,1781193419077
2083947510,3,0.33705002,9.148951,0.35805002,1781193419087
2083947520,3,0.26505002,9.41205,0.075,1781193419097
2083947530,3,0.25305,9.726001,-0.50805,1781193419107
2083947541,3,0.27705002,9.89595,-0.88095003,1781193419117
2083947551,3,0.26295,10.116,-1.269,1781193419127
2083947561,3,0.22005,10.438951,-1.8649501,1781193419138
2083947571,3,0.08295,10.939951,-2.811,1781193419148
2083947581,3,0.025950002,11.40705,-3.759,1781193419158
2083947591,3,-0.07095,11.60505,-4.1059504,1781193419168
2083947601,3,-0.040050004,11.392051,-4.2670503,1781193419178
2083947611,3,0.15,10.746,-3.9070501,1781193419187
2083947621,3,0.43005002,10.35105,-3.3019502,1781193419198
2083947631,3,0.71505004,10.420051,-2.7150002,1781193419208
2083947641,3,1.0720501,10.474951,-2.3490002,1781193419218
2083947651,3,1.3429501,10.741051,-2.3800502,1781193419228
2083947661,3,1.7209501,10.6050005,-2.3440502,1781193419238
2083947671,3,2.09205,10.14,-2.2770002,1781193419248
2083947682,3,2.298,9.439051,-2.121,1781193419258
2083947692,3,2.3119502,8.64795,-1.9590001,1781193419268
2083947702,3,2.1019502,8.27505,-1.79295,1781193419278
2083947712,3,1.7190001,8.625,-1.6279501,1781193419288
2083947722,3,1.3810501,8.478001,-1.57305,1781193419298
2083947732,3,1.1179501,8.12895,-1.3219501,1781193419309
2083947742,3,1.09395,7.827,-1.5300001,1781193419319
2083947752,3,1.1539501,8.509951,-2.0059502,1781193419329
2083947762,3,1.4770501,9.84105,-2.2459502,1781193419339
2083947772,3,1.8379501,10.31505,-2.49705,1781193419348
2083947782,3,1.8330001,10.72395,-3.25095,1781193419360
2083947792,3,1.4119501,11.18595,-3.828,1781193419370
2083947802,3,0.96405005,11.43105,-4.3309503,1781193419379
2083947813,3,0.45195,11.40705,-4.4890504,1781193419388
2083947823,3,-0.061950002,11.20995,-4.4050503,1781193419400
2083947833,3,-0.531,11.040001,-4.08705,1781193419410
2083947843,3,-0.85695004,10.782001,-3.6730502,1781193419420
2083947853,3,-1.05495,10.48005,-3.2610002,1781193419430
2083947863,3,-1.25205,10.22595,-2.844,1781193419440
2083947873,3,-1.3470001,10.02,-2.5759501,1781193419450
2083947883,3,-1.386,9.92205,-2.43495,1781193419460
2083947893,3,-1.43805,9.823951,-2.3820002,1781193419470
2083947903,3,-1.4460001,9.805051,-2.43,1781193419480
2083947913,3,-1.1179501,9.70005,-2.3130002,1781193419490
2083947923,3,-0.84495,9.55095,-2.289,1781193419500
2083947933,3,-0.71805006,9.427051,-2.3080502,1781193419510
2083947943,3,-0.60300004,9.30195,-2.25495,1781193419519
2083947954,3,-0.54300004,9.163051,-2.1720002,1781193419531
2083947964,3,-0.55005,9.151051,-2.2030501,1781193419541
2083947974,3,-0.63405,9.228001,-2.2840502,1781193419551
2083947984,3,-0.77805007,9.570001,-2.25795,1781193419561
2083947994,3,-0.84000003,9.76395,-2.25105,1781193419571
2083948004,3,-0.91200006,10.080001,-2.22,1781193419580
2083948014,3,-0.86595005,10.30305,-2.04705,1781193419590
2083948024,3,-0.73905003,10.52295,-1.8270001,1781193419600
2083948034,3,-0.55305004,10.71195,-1.7170501,1781193419610
2083948044,3,-0.342,10.9129505,-1.6980001,1781193419621
2083948054,3,-0.109950006,11.040001,-1.8169501,1781193419631
2083948064,3,0.20505,11.068951,-1.8889501,1781193419642
2083948074,3,0.51705,10.956,-1.8679501,1781193419651
2083948085,3,0.80895007,10.5709505,-1.7670001,1781193419662
2083948095,3,1.05495,10.111051,-1.6879501,1781193419671
2083948105,3,1.1700001,9.58005,-1.6380001,1781193419681
2083948115,3,1.3039501,9.07905,-1.626,1781193419691
2083948125,3,1.3240501,8.778001,-1.7569501,1781193419702
2083948135,3,1.2760501,8.566951,-1.9080001,1781193419710
2083948145,3,1.1560501,8.45895,-2.09505,1781193419722
2083948155,3,0.92100006,8.45895,-2.193,1781193419731
2083948165,3,0.71295005,8.59605,-2.25105,1781193419742
2083948175,3,0.52905005,8.6959505,-2.29095,1781193419752
2083948185,3,0.33495003,8.887951,-2.29905,1781193419763
2083948195,3,0.21705002,9.07005,-2.2770002,1781193419772
2083948205,3,0.09,9.297001,-2.06205,1781193419782
2083948216,3,-0.00405,9.53205,-1.8870001,1781193419793
2083948226,3,-0.13095,9.81,-1.72395,1781193419803
2083948236,3,-0.18105,10.066051,-1.5469501,1781193419812
2083948246,3,-0.19800001,10.257001,-1.2760501,1781193419823
2083948256,3,-0.08595,10.399051,-1.03695,1781193419833
2083948266,3,0.11895001,10.456051,-0.91005003,1781193419842
2083948276,3,0.31800002,10.51395,-0.92700005,1781193419854
2083948286,3,0.555,10.5400505,-0.9990001,1781193419863
2083948296,3,0.73905003,10.47795,-1.14495,1781193419872
2083948306,3,0.87600005,10.375051,-1.36695,1781193419883
2083948316,3,0.92595005,10.245001,-1.542,1781193419893
2083948326,3,0.9480001,10.1640005,-1.7020501,1781193419903
2083948336,3,0.91395,10.066051,-1.7890501,1781193419914
2083948346,3,0.86895007,9.99195,-1.8319501,1781193419923
2083948357,3,0.84900004,9.89595,-1.8409501,1781193419933
2083948367,3,0.86595005,9.931951,-1.8940501,1781193419946
2083948377,3,0.91200006,10.047001,-1.87995,1781193419954
2083948387,3,1.00695,10.1980505,-1.88205,1781193419964
2083948397,3,1.14195,10.411051,-1.8840001,1781193419974
2083948407,3,1.25205,10.68795,-1.8169501,1781193419984
2083948417,3,1.31895,10.942051,-1.7410501,1781193419995
2083948427,3,1.4119501,11.224951,-1.6210501,1781193420004
2083948437,3,1.47,11.458951,-1.4749501,1781193420013
2083948447,3,1.5510001,11.533051,-1.25205,1781193420025
2083948457,3,1.6680001,11.434951,-0.95100003,1781193420033
2083948467,3,1.7710501,11.158051,-0.61305004,1781193420043
2083948477,3,1.7899501,10.82505,-0.20400001,1781193420054
2083948488,3,1.6870501,10.54695,0.11895001,1781193420066
2083948498,3,1.6279501,10.221001,0.291,1781193420075
2083948508,3,1.55295,9.934051,0.47295,1781193420085
2083948518,3,1.5370501,9.4480505,0.68595004,1781193420095
2083948528,3,1.44105,9.151051,0.99000007,1781193420106
2083948538,3,1.371,8.77305,1.12905,1781193420116
2083948548,3,1.28505,8.625,1.2970501,1781193420125
2083948558,3,1.2780001,8.478001,1.28205,1781193420136
2083948568,3,1.383,8.562,1.4670001,1781193420144
2083948578,3,1.43595,8.63595,1.1839501,1781193420156
2083948588,3,1.623,9.003,1.1050501,1781193420166
2083948598,3,1.8529501,9.4459505,1.2750001,1781193420177
2083948608,3,2.0389502,9.858001,1.1890501,1781193420186
2083948619,3,2.29305,10.24995,1.27695,1781193420196
2083948629,3,2.83395,10.356001,1.2889501,1781193420204
2083948639,3,4.22805,9.73305,2.8890002,1781193420215
2083948649,3,4.62795,8.89995,4.91895,1781193420225
2083948659,3,4.08405,8.694,6.4729505,1781193420235
2083948669,3,3.1600502,9.063001,5.2039504,1781193420244
2083948679,3,2.3410501,10.108951,2.6110501,1781193420256
2083948689,3,2.085,10.444051,0.73605,1781193420266
2083948699,3,1.74495,11.00205,0.573,1781193420275
2083948709,3,1.45305,11.241,0.65505004,1781193420284
2083948719,3,1.4670001,10.983001,0.55005,1781193420295
2083948729,3,1.503,10.684051,0.45405003,1781193420307
2083948739,3,1.503,10.37895,0.43500003,1781193420317
2083948749,3,1.43805,10.224001,0.42495003,1781193420327
2083948760,3,1.31895,10.000951,0.30495003,1781193420336
2083948770,3,1.1560501,9.819,0.28605002,1781193420348
2083948780,3,1.02195,9.70005,0.31995,1781193420356
2083948790,3,0.97905004,9.57705,0.126,1781193420365
2083948800,3,0.97395,9.508051,-0.076950006,1781193420377
2083948810,3,1.0000501,9.38595,-0.25395,1781193420386
2083948820,3,1.1010001,9.337951,-0.30900002,1781193420397
2083948830,3,1.3450501,9.229951,-0.37095,1781193420407
2083948840,3,1.6200001,9.166051,-0.31905,1781193420416
2083948850,3,1.8409501,9.285001,-0.31395,1781193420426
2083948860,3,2.12805,9.39105,-0.27105,1781193420438
2083948870,3,2.3820002,9.57495,-0.201,1781193420450
2083948880,3,2.6430001,9.931951,-0.14895001,1781193420458
2083948891,3,2.86995,9.91005,-0.22500001,1781193420467
2083948901,3,2.9659503,9.70695,-0.25905,1781193420478
2083948911,3,2.83395,9.592051,-0.34695002,1781193420489
2083948921,3,2.70705,9.427051,-0.42405003,1781193420496
2083948931,3,2.7,8.92395,-0.24705002,1781193420507
2083948941,3,2.7190502,8.38305,-0.08895,1781193420517
2083948951,3,2.7,8.095051,-0.025950002,1781193420529
2083948961,3,2.66895,7.9800005,0.016050002,1781193420546
2083948971,3,2.736,7.8490505,0.054,1781193420548
2083948981,3,2.8630502,7.7580004,0.19995001,1781193420557
2083948991,3,2.97795,7.3440003,0.45405003,1781193420568
2083949001,3,2.8249502,7.6740003,0.56895,1781193420578
2083949011,3,2.772,9.024,0.44205,1781193420588
2083949021,3,3.4969501,10.059,-0.27105,1781193420598
2083949032,3,4.2130504,9.754951,-0.99105006,1781193420608
2083949042,3,4.611,9.393001,-1.06095,1781193420619
2083949052,3,4.76205,9.493951,-1.197,1781193420629
2083949062,3,4.5529504,9.738001,-1.95105,1781193420638
2083949072,3,4.21995,9.67605,-2.4469502,1781193420648
2083949082,3,3.9640503,9.10305,-2.7490501,1781193420659
2083949092,3,3.7339501,8.56005,-2.811,1781193420669
2083949102,3,3.5089502,7.9519506,-2.5879502,1781193420678
2083949112,3,3.28905,6.9150004,-2.157,1781193420689
2083949122,3,3.28395,6.405,-1.72905,1781193420699
2083949132,3,3.624,6.16095,-1.91805,1781193420709
2083949142,3,3.8920503,6.0340505,-2.0740502,1781193420720
2083949152,3,3.9760501,5.80905,-2.016,1781193420729
2083949163,3,4.21605,5.8900504,-1.848,1781193420740
2083949173,3,4.5529504,6.39795,-2.11695,1781193420750
2083949183,3,5.046,7.96395,-2.1360002,1781193420759
2083949193,3,5.3890505,10.06095,-1.983,1781193420768
2083949203,3,5.4079504,12.3810005,-2.36595,1781193420781
2083949213,3,4.5799503,15.574951,-2.64105,1781193420789
2083949223,3,2.8150501,18.50805,-0.96000004,1781193420800
2083949233,3,0.71505004,18.771002,-0.79005,1781193420811
2083949243,3,-0.51195,17.373001,-0.120000005,1781193420820
2083949253,3,-1.572,15.690001,1.1029501,1781193420829
2083949263,3,-2.2789502,13.657051,1.53795,1781193420841
2083949273,3,-2.5729501,12.079051,1.5120001,1781193420850
2083949283,3,-2.74095,10.827001,1.7160001,1781193420860
2083949294,3,-2.844,10.1640005,1.9789501,1781193420870
2083949304,3,-2.901,9.68805,2.2450502,1781193420882
2083949314,3,-2.9160001,9.457951,2.33295,1781193420891
2083949324,3,-2.9560502,9.288,2.391,1781193420902
2083949334,3,-2.9920502,9.24705,2.3380501,1781193420911
2083949344,3,-3.0499501,9.283051,2.3070002,1781193420921
2083949354,3,-3.1620002,9.280951,2.21595,1781193420931
2083949364,3,-3.351,9.582001,2.11305,1781193420942
2083949374,3,-3.591,9.939,1.8930001,1781193420951
2083949384,3,-3.8490002,10.482,1.74405,1781193420961
2083949394,3,-3.9829502,10.87005,1.3920001,1781193420971
2083949404,3,-3.8370001,11.229,1.1149501,1781193420982
2083949414,3,-3.21,11.170051,1.098,1781193420990
2083949424,3,-2.535,11.15295,0.82695,1781193421001
2083949435,3,-1.98405,11.104951,0.41505003,1781193421011
2083949445,3,-1.5270001,10.894051,0.16905001,1781193421022
2083949455,3,-1.06305,10.48005,0.034950003,1781193421032
2083949465,3,-0.82500005,10.147051,-0.117000006,1781193421042
2083949475,3,-0.67200005,9.838051,-0.108,1781193421052
2083949485,3,-0.531,9.481951,-0.07005,1781193421062
2083949495,3,-0.42600003,9.204,-0.031050002,1781193421072
2083949505,3,-0.32295,8.986051,-0.031050002,1781193421082
2083949515,3,-0.22005,8.93295,0.016050002,1781193421092
2083949525,3,-0.201,8.964001,-0.07395,1781193421102
2083949535,3,-0.20295002,9.07905,-0.165,1781193421113
2083949545,3,-0.20505,9.21105,-0.201,1781193421124
2083949555,3,-0.18900001,9.361951,-0.22005,1781193421132
2083949566,3,-0.13800001,9.465,-0.21300001,1781193421143
2083949576,3,-0.097950004,9.666,-0.22500001,1781193421153
2083949586,3,-0.043050002,9.7900505,-0.252,1781193421163
2083949596,3,0.0139500005,9.835951,-0.22005,1781193421173
2083949606,3,0.052050002,9.88605,-0.17295001,1781193421183
2083949616,3,-0.031050002,10.008,-0.072000004,1781193421193
2083949626,3,-0.19305001,10.2310505,0.09900001,1781193421203
2083949636,3,-0.294,10.509001,0.32205,1781193421212
2083949646,3,-0.32295,10.863001,0.46305,1781193421223
2083949656,3,-0.13395001,11.031,0.51105005,1781193421233
2083949666,3,0.27195,10.815001,0.43500003,1781193421243
2083949676,3,0.50205004,10.593,-0.010050001,1781193421254
2083949686,3,0.73905003,10.21695,-0.12705001,1781193421263
2083949697,3,1.01505,9.69705,-0.177,1781193421273
2083949707,3,1.24695,9.27795,-0.31395,1781193421282
2083949717,3,1.4959501,8.907001,-0.58395004,1781193421293
2083949727,3,1.7040001,8.542951,-0.61305004,1781193421303
2083949737,3,1.83105,8.14095,-0.57495004,1781193421313
2083949747,3,1.7569501,7.8490505,-0.53400004,1781193421324
2083949757,3,1.0819501,8.46195,-0.29700002,1781193421335
2083949767,3,0.43800002,8.77095,0.14295001,1781193421344
2083949777,3,-0.21300001,9.331051,0.41805002,1781193421354
2083949787,3,-0.79395,10.071,0.82500005,1781193421364
2083949797,3,-1.2040501,10.956,1.1389501,1781193421374
2083949807,3,-1.3950001,11.548051,1.3729501,1781193421383
2083949817,3,-1.28295,11.842051,1.45905,1781193421394
2083949827,3,-0.68700004,11.34195,1.50195,1781193421404
2083949838,3,0.031050002,10.734,1.02795,1781193421413
2083949848,3,0.42105,10.52805,0.58095,1781193421424
2083949858,3,0.69900006,10.156951,0.22905001,1781193421433
2083949868,3,0.83505005,9.85995,-0.010050001,1781193421446
2083949878,3,0.81600004,9.73995,-0.31905,1781193421455
2083949888,3,0.684,9.811951,-0.66795003,1781193421465
2083949898,3,0.51705,10.1640005,-0.88395005,1781193421476
2083949908,3,0.30105,10.968,-0.795,1781193421486
2083949918,3,0.23400001,11.541,-0.67305005,1781193421495
2083949928,3,0.44505003,11.838,-0.57000005,1781193421506
2083949938,3,0.76605004,11.857051,-0.59895,1781193421514
2083949948,3,1.04805,11.835001,-0.71595,1781193421526
2083949958,3,1.31895,11.454,-0.80505,1781193421535
2083949969,3,1.5370501,10.87695,-0.80700004,1781193421544
2083949979,3,1.6609501,10.264951,-0.69900006,1781193421554
2083949989,3,1.6470001,9.778951,-0.65400004,1781193421565
2083949999,3,1.623,9.496051,-0.48600003,1781193421574
2083950009,3,1.6009501,9.328051,-0.41205,1781193421586
2083950019,3,1.5870001,9.276,-0.20805001,1781193421596
2083950029,3,1.51005,9.21105,-0.06705,1781193421606
2083950039,3,1.44105,9.096001,-0.076950006,1781193421615
2083950049,3,1.383,8.93805,0.11400001,1781193421627
2083950059,3,1.2970501,8.875951,0.41805002,1781193421636
2083950069,3,1.233,8.883,0.56205004,1781193421647
2083950079,3,1.1509501,9.024,0.708,1781193421656
2083950089,3,1.06305,9.1060505,0.77505004,1781193421666
2083950099,3,0.96405005,9.25395,0.77505004,1781193421675
2083950110,3,0.91905004,9.382951,0.66195005,1781193421686
2083950120,3,0.98595005,9.42405,0.40095,1781193421696
2083950130,3,1.065,9.472051,0.09195001,1781193421705
2083950140,3,1.146,9.558001,-0.13695,1781193421715
2083950150,3,1.28505,9.55605,-0.23505001,1781193421727
2083950160,3,1.4500501,9.77595,-0.24000001,1781193421738
2083950170,3,1.695,9.868951,-0.18900001,1781193421746
2083950180,3,1.8049501,10.000951,-0.381,1781193421758
2083950190,3,1.76205,10.083,-0.43605003,1781193421766
2083950200,3,1.4860501,10.13805,-0.37095,1781193421776
2083950210,3,1.1700001,10.17405,-0.30705002,1781193421788
2083950220,3,1.02405,9.984,-0.21105,1781193421799
2083950230,3,0.97905004,10.02,-0.112950005,1781193421807
2083950241,3,1.077,10.044001,0.042000003,1781193421818
2083950251,3,1.1700001,10.17405,0.17595,1781193421828
2083950261,3,1.21605,10.329,0.09195001,1781193421837
2083950271,3,1.3260001,10.35105,-0.036000002,1781193421848
2083950281,3,1.491,10.33905,-0.21300001,1781193421858
2083950291,3,1.6129501,10.40295,-0.381,1781193421868
2083950301,3,1.6129501,10.545,-0.53205,1781193421878
2083950311,3,1.56105,10.465951,-0.65595,1781193421888
2083950321,3,1.43805,10.320001,-0.81705004,1781193421898
2083950331,3,1.35,10.035001,-0.79005,1781193421908
2083950341,3,1.18005,9.769051,-0.94305,1781193421918
2083950351,3,1.06005,9.54405,-1.0339501,1781193421928
2083950361,3,0.98595005,9.30405,-1.164,1781193421939
2083950372,3,1.01205,9.172951,-1.2210001,1781193421948
2083950382,3,1.07895,9.20205,-1.245,1781193421959
2083950392,3,1.233,9.199051,-1.2379501,1781193421969
2083950402,3,1.3470001,9.229951,-1.25205,1781193421979
2083950412,3,1.44105,9.217951,-1.21905,1781193421988
2083950422,3,1.48905,9.199051,-1.2379501,1781193421999
2083950432,3,1.4599501,9.1390505,-1.2709501,1781193422009
2083950442,3,1.30005,9.13395,-1.248,1781193422019
2083950452,3,1.1509501,9.25695,-1.11105,1781193422029
2083950462,3,1.04295,9.22095,-0.95295006,1781193422039
2083950472,3,0.93795,9.166051,-0.75000006,1781193422049
2083950482,3,0.92100006,9.08205,-0.63195,1781193422058
2083950492,3,0.91605,8.95005,-0.522,1781193422070
2083950502,3,0.94995004,9.012,-0.49605003,1781193422079
2083950513,3,1.00995,9.120001,-0.57705003,1781193422089
2083950523,3,1.00695,9.192,-0.71805006,1781193422099
2083950533,3,0.97605,9.429001,-0.82905006,1781193422110
2083950543,3,1.02195,9.59895,-0.9990001,1781193422120
2083950553,3,1.149,9.802051,-1.125,1781193422129
2083950563,3,1.2900001,9.963,-1.2430501,1781193422139
2083950573,3,1.4100001,9.94095,-1.30305,1781193422150
2083950583,3,1.55805,9.901051,-1.40295,1781193422160
2083950593,3,1.7160001,9.826051,-1.54005,1781193422170
2083950603,3,1.8790501,9.7900505,-1.7910001,1781193422180
2083950613,3,2.061,9.7570505,-1.9710001,1781193422190
2083950623,3,2.2759502,9.762,-2.088,1781193422200
2083950633,3,2.49195,9.946051,-2.121,1781193422210
2083950644,3,2.7120001,10.411051,-2.217,1781193422222
2083950654,3,3.01095,10.98795,-2.1430502,1781193422231
2083950664,3,3.3660002,11.48805,-1.91295,1781193422239
2083950674,3,3.7540503,11.83005,-1.7380501,1781193422251
2083950684,3,4.197,11.79705,-1.6380001,1781193422261
2083950694,3,4.776,11.57205,-1.3960501,1781193422270
2083950704,3,5.38395,10.753051,-1.00605,1781193422281
2083950714,3,5.66895,10.01595,-0.606,1781193422290
2083950724,3,5.68095,9.156,-0.41205,1781193422300
2083950734,3,5.451,8.3539505,-0.63000005,1781193422310
2083950744,3,4.9890003,8.389951,-1.3290001,1781193422322
2083950754,3,3.9600003,9.07695,-1.76205,1781193422332
2083950764,3,3.2050502,9.453,-2.11395,1781193422342
2083950775,3,2.5729501,9.625051,-2.2480502,1781193422351
2083950785,3,2.2090502,9.77595,-2.0689502,1781193422362
2083950795,3,2.0730002,9.846001,-1.9390501,1781193422371
2083950805,3,2.157,9.89805,-1.9009501,1781193422381
2083950815,3,2.3029501,9.90495,-1.8199501,1781193422392
2083950825,3,2.38695,9.87405,-1.7770501,1781193422401
2083950835,3,2.4780002,9.747001,-1.6980001,1781193422411
2083950845,3,2.60205,9.63195,-1.4940001,1781193422422
2083950855,3,2.7960002,9.537001,-1.36995,1781193422433
2083950865,3,2.9160001,9.486,-1.17795,1781193422443
2083950875,3,2.9920502,9.498,-1.06305,1781193422451
2083950885,3,3.00705,9.537001,-1.0699501,1781193422462
2083950895,3,2.90805,9.541051,-1.1230501,1781193422473
2083950905,3,2.7150002,9.637051,-1.35,1781193422483
2083950916,3,2.4870002,9.747001,-1.5640501,1781193422493
2083950926,3,2.26395,9.73995,-1.7550001,1781193422503
2083950936,3,2.0989501,9.649051,-1.7890501,1781193422513
2083950946,3,1.9530001,9.498,-1.6860001,1781193422523
2083950956,3,1.7500501,9.38595,-1.473,1781193422533
2083950966,3,1.5439501,9.19005,-1.2070501,1781193422543
2083950976,3,1.3549501,8.863951,-0.97200006,1781193422553
2083950986,3,1.2589501,8.41605,-0.75405,1781193422563
2083950996,3,1.12695,7.9540505,-0.546,1781193422572
2083951006,3,0.97200006,7.59705,-0.43800002,1781193422583
2083951016,3,0.78495,7.39095,-0.49095002,1781193422594
2083951026,3,0.56895,7.38,-0.60795003,1781193422603
2083951036,3,0.31800002,7.4779506,-0.675,1781193422612
2083951047,3,0.094950005,7.9849505,-0.702,1781193422624
2083951057,3,-0.13605,9.07695,-0.52695,1781193422632
2083951067,3,-0.33195,10.771951,-0.012,1781193422644
2083951077,3,-0.33705002,12.901051,0.15900001,1781193422654
2083951087,3,0.025950002,14.158051,0.52095,1781193422664
2083951097,3,0.55695003,15.199051,1.1220001,1781193422673
2083951107,3,1.1850001,15.45495,1.31595,1781193422684
2083951117,3,1.7400001,14.782051,1.23195,1781193422695
2083951127,3,2.22105,13.485001,0.58305,1781193422704
2083951137,3,2.6239502,11.77995,0.126,1781193422714
2083951147,3,2.9250002,10.152,-0.031050002,1781193422724
2083951157,3,2.8609502,9.022051,0.13305001,1781193422735
2083951167,3,2.50395,8.24895,0.34800002,1781193422745
2083951178,3,1.9699501,8.160001,0.633,1781193422754
2083951188,3,1.74195,8.088,0.78900003,1781193422765
2083951198,3,1.8430501,7.9830003,0.94200003,1781193422774
2083951208,3,2.082,7.96605,0.99495006,1781193422784
2083951218,3,2.3700001,8.244,0.95205003,1781193422795
2083951228,3,2.7910502,8.502001,0.933,1781193422805
2083951238,3,3.2440503,8.866051,0.77205,1781193422816
2083951248,3,3.6510003,9.216001,0.58995,1781193422824
2083951258,3,3.8400002,9.42405,0.147,1781193422836
2083951268,3,3.8539503,9.54405,-0.30705002,1781193422844
2083951278,3,3.9090002,9.508051,-0.63705003,1781193422854
2083951288,3,4.0410004,9.26895,-0.87195003,1781193422866
2083951298,3,4.17,9.12495,-0.93405,1781193422875
2083951308,3,4.302,9.07905,-0.864,1781193422885
2083951319,3,4.2829504,9.028951,-0.711,1781193422896
2083951329,3,3.9600003,9.09105,-0.49095002,1781193422905
2083951339,3,3.6460502,9.213,-0.24705002,1781193422915
2083951349,3,3.5329502,9.216001,-0.14895001,1781193422925
2083951359,3,3.4810503,9.27795,-0.17505,1781193422936
2083951369,3,3.4300501,9.29205,-0.30900002,1781193422947
2083951379,3,3.31995,9.240001,-0.49800003,1781193422955
2083951389,3,3.1720502,9.084001,-0.40005,1781193422965
2083951399,3,3.0330002,8.941051,-0.462,1781193422976
2083951409,3,2.7889502,8.878051,-0.47400004,1781193422986
2083951419,3,2.5159502,8.919001,-0.441,1781193422997
2083951429,3,2.32905,8.99295,-0.44505003,1781193423007
2083951439,3,2.22105,9.036,-0.44505003,1781193423017
2083951450,3,2.11095,9.120001,-0.45000002,1781193423026
2083951460,3,2.05095,9.20895,-0.38805002,1781193423037
2083951470,3,2.01795,9.337951,-0.35700002,1781193423045
2083951480,3,1.9650002,9.56295,-0.24405001,1781193423057
2083951490,3,1.98405,9.68505,-0.25395,1781193423067
2083951500,3,2.01105,9.805051,-0.28500003,1781193423077
2083951510,3,2.013,9.94095,-0.33105,1781193423087
2083951520,3,2.0269501,9.987,-0.38595003,1781193423097
2083951530,3,2.0080502,9.86205,-0.453,1781193423108
2083951540,3,1.9699501,9.592051,-0.51495004,1781193423117
2083951550,3,1.8739501,9.288,-0.55095005,1781193423127
2083951560,3,1.7710501,9.0390005,-0.47400004,1781193423138
2083951570,3,1.7260501,8.823,-0.35205,1781193423147
2083951580,3,1.764,8.6959505,-0.26805001,1781193423157
2083951591,3,1.82895,8.566951,-0.21795002,1781193423167
2083951601,3,1.86705,8.45895,-0.33795002,1781193423178
2083951611,3,1.8330001,8.365951,-0.54405004,1781193423188
2083951621,3,1.7899501,8.18595,-0.79005,1781193423197
2083951631,3,1.8379501,7.97805,-1.1179501,1781193423208
2083951641,3,1.9099501,7.7719502,-1.29495,1781193423218
2083951651,3,1.9890001,7.5040503,-1.3740001,1781193423227
2083951661,3,2.0299501,7.1950502,-1.3579501,1781193423238
2083951671,3,2.0680501,6.94395,-1.3429501,1781193423249
2083951681,3,2.1709502,6.6900005,-1.3980001,1781193423258
2083951691,3,2.4420002,6.6060004,-1.3410001,1781193423268
2083951701,3,2.8630502,6.8359504,-1.3600501,1781193423278
2083951711,3,3.4810503,7.68795,-1.29795,1781193423288
2083951722,3,4.24695,9.55605,-1.38405,1781193423297
2083951732,3,4.91505,12.814051,-0.36405003,1781193423309
2083951742,3,5.57805,17.056952,2.0629501,1781193423319
2083951752,3,5.74305,20.104952,1.93095,1781193423329
2083951762,3,5.5800004,19.92,1.6530001,1781193423339
2083951772,3,4.788,16.57995,0.85395,1781193423349
2083951782,3,3.969,12.834001,1.1770501,1781193423359
2083951792,3,3.28005,10.68105,1.7950501,1781193423369
2083951802,3,2.5900502,9.204,1.5120001,1781193423377
2083951812,3,1.8240001,8.586,1.2079501,1781193423389
2083951822,3,1.26405,8.385,1.026,1781193423399
2083951832,3,0.66,8.866051,0.88500005,1781193423410
2083951842,3,0.124050006,9.57705,0.76500005,1781193423418
2083951853,3,-0.11895001,10.095,0.72,1781193423430
2083951863,3,-0.109950006,10.257001,0.69105005,1781193423440
2083951873,3,0.20295002,10.245001,0.37695003,1781193423450
2083951883,3,0.49005002,10.417951,-0.060000002,1781193423460
2083951893,3,0.90000004,10.39395,-0.675,1781193423470
2083951903,3,1.3590001,10.17405,-1.0180501,1781193423480
2083951913,3,1.8139501,9.87705,-1.1920501,1781193423490
2083951923,3,2.094,9.5130005,-1.1850001,1781193423500
2083951933,3,1.9960501,9.084001,-0.83100003,1781193423510
2083951943,3,1.8409501,8.883,-0.54795,1781193423520
2083951953,3,1.63995,8.77095,-0.25395,1781193423530
2083951963,3,1.4290501,8.61495,0.15405001,1781193423540
2083951973,3,1.24395,8.55,0.597,1781193423550
2083951983,3,1.0390501,8.565001,0.84405005,1781193423560
2083951994,3,0.88500005,8.536051,0.89895004,1781193423569
2083952004,3,0.82995003,8.434951,0.84405005,1781193423581
2083952014,3,0.84705,8.292001,0.69600004,1781193423591
2083952024,3,0.86100006,8.182051,0.58095,1781193423601
2083952034,3,0.864,8.11005,0.35295,1781193423611
2083952044,3,0.79005,8.0140505,0.09705,1781193423621
2083952054,3,0.69900006,7.9759502,-0.18,1781193423631
2083952064,3,0.6,8.023951,-0.45705003,1781193423641
2083952074,3,0.507,8.13795,-0.726,1781193423651
2083952084,3,0.47595003,8.434951,-0.94095004,1781193423661
2083952094,3,0.49005002,8.890051,-1.044,1781193423671
2083952104,3,0.49800003,9.609,-1.03005,1781193423682
2083952114,3,0.65595,10.176001,-1.14705,1781193423690
2083952125,3,0.99105006,10.509001,-1.233,1781193423702
2083952135,3,1.36695,10.863001,-1.19505,1781193423712
2083952145,3,1.8499501,11.068951,-1.14705,1781193423722
2083952155,3,2.4180002,11.136001,-1.0489501,1781193423730
2083952165,3,2.80305,11.313001,-0.82605004,1781193423742
2083952175,3,2.9950502,11.490001,-0.85005003,1781193423752
2083952185,3,3.1290002,11.368051,-0.99105006,1781193423762
2083952195,3,3.2440503,11.00895,-1.09905,1781193423771
2083952205,3,3.2650502,10.465951,-1.1730001,1781193423783
2083952215,3,3.2599502,10.066051,-1.245,1781193423793
2083952225,3,3.2580001,9.817051,-1.245,1781193423803
2083952235,3,3.2220001,9.72795,-1.2859501,1781193423812
2083952245,3,3.0550501,9.793051,-1.3789501,1781193423822
2083952256,3,2.77905,9.982051,-1.29495,1781193423833
2083952266,3,2.56095,10.20495,-1.125,1781193423843
2083952276,3,2.36295,10.39395,-0.984,1781193423853
2083952286,3,2.1349502,10.578,-0.83295006,1781193423863
2083952296,3,1.8570001,10.68105,-0.675,1781193423872
2083952306,3,1.5460501,10.72395,-0.59595,1781193423882
2083952316,3,1.2210001,10.686001,-0.60105,1781193423894
2083952326,3,0.90000004,10.585051,-0.58905005,1781193423903
2083952336,3,0.64395005,10.474951,-0.52695,1781193423913
2083952346,3,0.49305,10.375051,-0.46695003,1781193423923
2083952356,3,0.36795002,10.332001,-0.46695003,1781193423934
2083952366,3,0.354,10.39395,-0.50505,1781193423943
2083952376,3,0.44505003,10.458,-0.47700003,1781193423954
2083952386,3,0.56205004,10.51095,-0.40995002,1781193423962
2083952397,3,0.57405,10.48995,-0.44805002,1781193423974
2083952407,3,0.54105,10.485001,-0.49095002,1781193423984
2083952417,3,0.50205004,10.387051,-0.52905005,1781193423994
2083952427,3,0.483,10.20705,-0.58695,1781193424003
2083952437,3,0.49305,10.012951,-0.66105,1781193424013
2083952447,3,0.52605003,9.817051,-0.69705003,1781193424025
2083952457,3,0.60300004,9.70905,-0.76395005,1781193424035
2083952467,3,0.74205005,9.72795,-0.80895007,1781193424045
2083952477,3,0.8880001,9.73995,-0.91695005,1781193424053
2083952487,3,1.0860001,9.73995,-1.0320001,1781193424065
2083952497,3,1.2730501,9.75195,-1.10895,1781193424075
2083952507,3,1.419,9.73305,-1.07805,1781193424085
2083952517,3,1.5340501,9.65205,-1.04205,1781193424095
2083952528,3,1.4980501,9.781051,-0.9580501,1781193424103
2083952538,3,1.39995,9.88395,-0.93105006,1781193424115
2083952548,3,1.24905,10.035001,-0.87195003,1781193424126
2083952558,3,1.098,10.092,-0.80505,1781193424134
2083952568,3,0.95205003,10.108951,-0.74700004,1781193424146
2083952578,3,0.82800007,10.078051,-0.73005,1781193424156
2083952588,3,0.69600004,9.987,-0.702,1781193424166
2083952598,3,0.56700003,9.927,-0.71595,1781193424175
2083952608,3,0.45405003,9.91005,-0.71400005,1781193424186
2083952618,3,0.41595003,9.931951,-0.69000006,1781193424195
2083952628,3,0.45000002,9.92895,-0.69705003,1781193424204
2083952638,3,0.49005002,9.972,-0.67995006,1781193424214
2083952648,3,0.51705,9.964951,-0.70395005,1781193424225
2083952658,3,0.48105,9.984,-0.67995006,1781193424234
2083952669,3,0.43305,9.925051,-0.68505,1781193424245
2083952679,3,0.34905002,9.937051,-0.67995006,1781193424256
2083952689,3,0.26295,9.85995,-0.73800004,1781193424265
2083952699,3,0.18405001,9.831,-0.73800004,1781193424276
2083952709,3,0.08595,9.8890505,-0.73800004,1781193424285
2083952719,3,0.00705,9.96,-0.71400005,1781193424294
2083952729,3,-0.081,10.06305,-0.69405,1781193424305
2083952739,3,-0.15795001,10.15005,-0.72105,1781193424314
2083952749,3,-0.24405001,10.252951,-0.702,1781193424327
2083952759,3,-0.28005,10.284,-0.73800004,1781193424336
2083952769,3,-0.28695002,10.36695,-0.66300005,1781193424346
2083952779,3,-0.162,10.356001,-0.63000005,1781193424355
2083952789,3,0.045,10.30305,-0.642,1781193424365
2083952800,3,0.21000001,10.22595,-0.66300005,1781193424375
2083952810,3,0.34905002,10.189951,-0.71400005,1781193424386
2083952820,3,0.40695003,10.090051,-0.83295006,1781193424395
2083952830,3,0.38505003,9.99195,-0.94305,1781193424405
2083952840,3,0.38505003,9.915001,-0.99105006,1781193424415
2083952850,3,0.31605002,9.89805,-1.0819501,1781193424426
2083952860,3,0.294,9.891001,-1.10895,1781193424437
2083952870,3,0.28905,9.934051,-1.06095,1781193424447
2083952880,3,0.23205002,9.955951,-1.1710501,1781193424457
2083952890,3,0.21000001,9.91005,-1.12995,1781193424467
2083952900,3,0.15300001,9.955951,-1.0540501,1781193424477
2083952910,3,0.10695001,9.979951,-0.93405,1781193424487
2083952920,3,0.097950004,10.03005,-0.85005003,1781193424498
2083952931,3,0.079050004,10.092,-0.76605004,1781193424508
2083952941,3,0.093,10.066051,-0.73305005,1781193424518
2083952951,3,0.11895001,10.008,-0.64395005,1781193424528
2083952961,3,0.11895001,9.925051,-0.54795,1781193424537
2083952971,3,0.109950006,9.88395,-0.48900002,1781193424548
2083952981,3,0.15,9.931951,-0.42600003,1781193424558
2083952991,3,0.28695002,9.82905,-0.50505,1781193424566
2083953001,3,0.42795002,9.781051,-0.61305004,1781193424577
2083953011,3,0.65595,9.73095,-0.68700004,1781193424588
2083953021,3,0.83295006,9.68505,-0.79305005,1781193424598
2083953031,3,0.97395,9.673051,-0.86895007,1781193424609
2083953041,3,1.161,9.592051,-0.9480001,1781193424619
2083953051,3,1.3810501,9.457951,-1.04595,1781193424628
2083953061,3,1.59405,9.252001,-1.09695,1781193424639
2083953072,3,1.82895,9.06705,-1.0870501,1781193424649
2083953082,3,1.9770001,8.890051,-1.0129501,1781193424659
2083953092,3,2.0029502,8.854051,-0.94605005,1781193424668
2083953102,3,1.8720001,8.953051,-0.91005003,1781193424679
2083953112,3,1.71105,9.1699505,-0.78300005,1781193424690
2083953122,3,1.5700501,9.319051,-0.64905006,1781193424699
2083953132,3,1.422,9.56805,-0.49800003,1781193424709
2083953142,3,1.33095,9.7900505,-0.42195,1781193424719
2083953152,3,1.2400501,9.972,-0.321,1781193424729
2083953162,3,1.1149501,10.135051,-0.22305001,1781193424739
2083953172,3,1.005,10.30305,-0.19395001,1781193424750
2083953182,3,0.85200006,10.533001,-0.12900001,1781193424760
2083953192,3,0.73905003,10.71195,-0.14595,1781193424770
2083953203,3,0.60300004,10.930051,-0.15105,1781193424779
2083953213,3,0.45405003,11.0449505,-0.18705001,1781193424789
2083953223,3,0.342,11.092951,-0.165,1781193424799
2083953233,3,0.23400001,11.055,-0.16095,1781193424811
2083953243,3,0.16995001,10.98495,-0.16800001,1781193424820
2083953253,3,0.17400001,10.944,-0.15795001,1781193424830
2083953263,3,0.22500001,10.806001,-0.31095,1781193424840
2083953273,3,0.20805001,10.719001,-0.45705003,1781193424850
2083953283,3,0.22200002,10.64295,-0.66300005,1781193424860
2083953293,3,0.22695,10.650001,-0.87600005,1781193424870
2083953303,3,0.26295,10.726951,-1.0489501,1781193424881
2083953313,3,0.26805001,10.942051,-1.28805,1781193424890
2083953323,3,0.27705002,11.29395,-1.4940001,1781193424901
2083953334,3,0.28905,11.74695,-1.6279501,1781193424911
2083953344,3,0.27,12.217951,-1.7190001,1781193424921
2083953354,3,0.282,12.747001,-1.81305,1781193424931
2083953364,3,0.31800002,13.38195,-1.9390501,1781193424941
2083953374,3,0.34695002,14.137951,-1.9369501,1781193424951
2083953384,3,0.37305,14.95005,-1.81305,1781193424961
2083953394,3,0.32805002,15.522,-1.5990001,1781193424970
2083953404,3,0.23400001,15.793051,-1.245,1781193424981
2083953414,3,0.28695002,15.912001,-0.84300005,1781193424990
2083953424,3,0.47100002,15.807001,-0.48600003,1781193425001
2083953434,3,0.79005,15.24705,-0.20805001,1781193425011
2083953444,3,1.0720501,14.233951,-0.012,1781193425022
2083953454,3,1.197,13.07505,0.064050004,1781193425031
2083953464,3,1.0669501,11.79405,-0.010050001,1781193425042
2083953475,3,0.72,10.606951,0.03705,1781193425051
2083953485,3,0.39195,9.453,0.25305,1781193425062
2083953495,3,0.14295001,8.347051,0.50595003,1781193425072
2083953505,3,-0.17895001,7.46295,0.588,1781193425083
2083953515,3,-0.483,6.9919505,0.75795,1781193425091
2083953525,3,-0.81405,7.0350003,1.2030001,1781193425101
2083953535,3,-1.1340001,7.2190504,2.187,1781193425112
2083953545,3,-1.3980001,8.29395,3.1350002,1781193425122
2083953555,3,-1.67295,8.775001,2.9490001,1781193425133
2083953565,3,-1.8210001,9.19005,2.9629502,1781193425143
2083953575,3,-1.6969501,9.316051,3.55695,1781193425152
2083953585,3,-1.4119501,9.27105,5.1199503,1781193425162
2083953595,3,-0.54300004,8.99295,6.492,1781193425172
2083953606,3,0.45195,8.553,6.4030504,1781193425183
2083953616,3,1.0000501,8.253,4.9170003,1781193425193
2083953626,3,0.61200005,8.313001,3.08505,1781193425203
2083953636,3,0.246,8.677051,1.7299501,1781193425213
2083953646,3,0.07395,8.9740505,0.85605,1781193425222
2083953656,3,0.36105,8.95695,0.07095,1781193425232
2083953666,3,1.4929501,8.43105,-0.010050001,1781193425243
2083953676,3,2.592,8.215051,0.21000001,1781193425253
2083953686,3,3.45,8.115001,0.15900001,1781193425266
2083953696,3,3.9280503,7.8919506,0.13305001,1781193425274
2083953706,3,4.0290003,7.8420005,0.12795001,1781193425281
2083953716,3,4.00995,7.866,0.25695002,1781193425293
2083953726,3,3.9790502,7.80105,0.49005002,1781193425303
2083953736,3,3.8490002,7.7959504,0.75495005,1781193425314
2083953747,3,3.2959502,7.9399505,0.94905007,1781193425324
2083953757,3,2.83695,8.0140505,1.3590001,1781193425334
2083953767,3,2.4060001,8.03295,1.69395,1781193425344
2083953777,3,1.9990501,8.038051,1.8589501,1781193425353
2083953787,3,1.70895,8.11905,1.8379501,1781193425363
2083953797,3,1.5079501,8.244,1.66005,1781193425374
2083953807,3,1.28295,8.392051,1.45905,1781193425383
2083953817,3,1.029,8.61495,1.3800001,1781193425394
2083953827,3,0.86895007,8.839951,1.179,1781193425404
2083953837,3,0.76995003,9.10305,0.86595005,1781193425413
2083953847,3,0.588,9.325951,0.708,1781193425424
2083953857,3,0.62895006,9.337951,0.52995,1781193425435
2083953867,3,0.81105006,9.321,0.31500003,1781193425445
2083953878,3,1.0170001,9.39105,-0.04095,1781193425454
2083953888,3,1.161,9.526951,-0.31095,1781193425465
2083953898,3,1.30005,9.39795,-0.57495004,1781193425475
2083953908,3,1.4260501,9.24495,-0.69405,1781193425486
2083953918,3,1.503,9.204,-0.75900006,1781193425493
2083953928,3,1.6129501,9.21105,-0.90795004,1781193425505
2083953938,3,1.6680001,9.20895,-1.0390501,1781193425515
2083953948,3,1.7380501,9.25905,-1.2760501,1781193425524
2083953958,3,1.7950501,9.273001,-1.45095,1781193425535
2083953968,3,1.9080001,9.34305,-1.554,1781193425545
2083953978,3,2.02305,9.37605,-1.6350001,1781193425555
2083953988,3,2.157,9.313951,-1.64295,1781193425565
2083953998,3,2.29305,9.1390505,-1.63995,1781193425574
2083954009,3,2.3389502,8.839951,-1.5870001,1781193425584
2083954019,3,2.3050501,8.680051,-1.5490501,1781193425595
2083954029,3,2.193,8.77995,-1.56105,1781193425605
2083954039,3,2.061,9.15795,-1.6140001,1781193425614
2083954049,3,1.98705,9.71895,-1.7260501,1781193425625
2083954059,3,2.01105,10.288051,-1.8409501,1781193425635
2083954069,3,2.07495,10.67895,-2.016,1781193425645
2083954079,3,2.15205,10.66695,-2.2789502,1781193425656
2083954089,3,2.13,10.39095,-2.397,1781193425666
2083954099,3,2.08695,9.963,-2.49195,1781193425676
2083954109,3,2.0269501,9.74295,-2.59995,1781193425686
2083954119,3,2.05395,9.74505,-2.63595,1781193425696
2083954129,3,2.121,9.88395,-2.5519502,1781193425705
2083954139,3,2.19705,9.931951,-2.43495,1781193425716
2083954150,3,2.1330001,9.783,-2.32305,1781193425726
2083954160,3,1.9339501,9.628051,-2.1670501,1781193425735
2083954170,3,1.7040001,9.51795,-2.0329502,1781193425746
2083954180,3,1.4959501,9.477,-1.9300501,1781193425756
2083954190,3,1.335,9.537001,-1.8720001,1781193425765
2083954200,3,1.2349501,9.799951,-1.8649501,1781193425776
2083954210,3,1.1730001,10.120951,-1.9609501,1781193425786
2083954220,3,1.1850001,10.252951,-2.112,1781193425796
2083954230,3,1.182,10.20195,-2.2099502,1781193425807
2083954240,3,1.1389501,10.068001,-2.29395,1781193425817
2083954250,3,1.065,10.07505,-2.29095,1781193425827
2083954260,3,0.97605,10.245001,-2.32305,1781193425836
2083954270,3,0.88995004,10.417951,-2.33205,1781193425847
2083954281,3,0.768,10.324051,-2.229,1781193425858
2083954291,3,0.624,9.943951,-2.0059502,1781193425868
2083954301,3,0.51195,9.618,-1.779,1781193425878
2083954311,3,0.37500003,9.54405,-1.6189501,1781193425887
2083954321,3,0.25095,9.75195,-1.59195,1781193425899
2083954331,3,0.18105,9.925051,-1.57605,1781193425908
2083954341,3,0.18900001,9.847951,-1.554,1781193425918
2083954351,3,0.342,9.738001,-1.47,1781193425928
2083954361,3,0.55995005,9.89295,-1.50405,1781193425938
2083954371,3,0.77505004,9.99195,-1.53495,1781193425948
2083954381,3,0.96000004,10.233001,-1.506,1781193425958
2083954391,3,1.077,10.320001,-1.4440501,1781193425969
2083954401,3,1.12995,10.255051,-1.422,1781193425979
2083954412,3,1.13205,10.102051,-1.4290501,1781193425989
2083954422,3,1.1179501,9.7570505,-1.4250001,1781193425999
2083954432,3,1.077,9.453,-1.41495,1781193426008
2083954442,3,1.0360501,9.18,-1.3789501,1781193426019
2083954452,3,1.0720501,9.024,-1.3740001,1781193426029
2083954462,3,1.16295,9.151051,-1.3219501,1781193426040
2083954472,3,1.3399501,9.462001,-1.3050001,1781193426049
2083954482,3,1.52205,9.7879505,-1.26195,1781193426059
2083954492,3,1.6849501,9.975,-1.2709501,1781193426069
2083954502,3,1.79805,10.092,-1.25205,1781193426080
2083954512,3,1.8139501,10.090051,-1.2360001,1781193426089
2083954522,3,1.8739501,10.092,-1.10595,1781193426099
2083954532,3,1.8570001,10.132951,-1.0200001,1781193426110
2083954542,3,1.659,10.120951,-0.90795004,1781193426120
2083954553,3,1.45305,10.02795,-0.69705003,1781193426130
2083954563,3,1.2780001,9.946051,-0.49095002,1781193426141
2083954573,3,1.1149501,9.89805,-0.35700002,1781193426150
2083954583,3,0.99105006,9.901051,-0.14400001,1781193426160
2083954593,3,0.84495,10.02495,0.00795,1781193426170
2083954603,3,0.69900006,10.080001,0.03705,1781193426181
2083954613,3,0.51900005,10.19295,-0.04095,1781193426190
2083954623,3,0.37500003,10.449,-0.19395001,1781193426200
2083954633,3,0.31800002,10.774951,-0.45000002,1781193426209
2083954643,3,0.54105,10.795951,-0.76095,1781193426221
2083954653,3,0.74700004,10.726951,-1.0129501,1781193426230
2083954663,3,0.93600005,10.498951,-1.2760501,1781193426239
2083954673,3,1.1920501,10.429951,-1.4629501,1781193426251
2083954684,3,1.422,10.341001,-1.4770501,1781193426261
2083954694,3,1.56105,10.16205,-1.212,1781193426270
2083954704,3,1.5649501,9.946051,-0.90000004,1781193426280
2083954714,3,1.5169501,9.766951,-0.66795003,1781193426290
2083954724,3,1.5270001,9.723001,-0.46500003,1781193426299
2083954734,3,1.623,9.74505,-0.29895002,1781193426311
2083954744,3,1.692,9.868951,-0.22500001,1781193426321
2083954754,3,1.71105,9.913051,-0.20595,1781193426330
2083954764,3,1.7380501,9.814051,-0.21300001,1781193426341
2083954774,3,1.71405,9.711,-0.18705001,1781193426351
2083954784,3,1.7880001,9.783,-0.156,1781193426360
2083954794,3,1.8330001,9.847951,-0.19905001,1781193426371
2083954804,3,1.845,9.646951,-0.27495003,1781193426381
2083954814,3,1.845,9.17805,-0.40005,1781193426391
2083954825,3,1.8379501,9.019951,-0.40695003,1781193426401
2083954835,3,1.8720001,9.217951,-0.51195,1781193426412
2083954845,3,1.89795,9.585,-0.71595,1781193426422
2083954855,3,2.0010002,9.786,-0.94605005,1781193426431
2083954865,3,2.0299501,9.783,-1.14705,1781193426442
2083954875,3,1.9390501,9.843,-1.176,1781193426452
2083954885,3,1.8259501,10.156951,-1.1689501,1781193426462
2083954895,3,1.692,10.509001,-1.1400001,1781193426472
2083954905,3,1.5319501,10.746,-1.05795,1781193426482
2083954915,3,1.4479501,10.827001,-0.975,1781193426492
2083954925,3,1.50495,10.818001,-1.00995,1781193426502
2083954935,3,1.6609501,10.8490505,-1.11105,1781193426512
2083954945,3,1.7760001,10.609051,-1.2760501,1781193426521
2083954956,3,1.5649501,9.847951,-1.4629501,1781193426533
2083954966,3,1.2760501,9.283051,-1.42005,1781193426541
2083954976,3,1.02195,8.979,-1.3600501,1781193426553
2083954986,3,0.744,8.93805,-1.281,1781193426563
2083954996,3,0.49500003,9.052951,-1.2739501,1781193426573
2083955006,3,0.27705002,9.27795,-1.5780001,1781193426583
2083955016,3,0.20805001,9.360001,-1.8529501,1781193426592
2083955026,3,0.069000006,9.56805,-2.0380502,1781193426603
2083955036,3,-0.20805001,9.781051,-2.35605,1781193426613
2083955046,3,-0.423,9.57495,-2.5789502,1781193426623
2083955056,3,-0.65295005,9.316051,-2.87805,1781193426634
2083955066,3,-0.95205003,9.205951,-2.9590502,1781193426643
2083955076,3,-1.2210001,9.20895,-2.9280002,1781193426654
2083955087,3,-1.5439501,9.514951,-2.80605,1781193426663
2083955097,3,-1.8000001,9.76395,-2.6530502,1781193426674
2083955107,3,-1.8960001,10.059,-2.3700001,1781193426684
2083955117,3,-1.3069501,9.915001,-2.1019502,1781193426694
2083955127,3,-0.588,9.30195,-1.75995,1781193426704
2083955137,3,-0.23700002,9.075001,-1.7220001,1781193426714
2083955147,3,0.025950002,8.863951,-1.60395,1781193426725
2083955157,3,0.21705002,8.83005,-1.4290501,1781193426733
2083955167,3,0.36600003,9.036,-1.3219501,1781193426745
2083955177,3,0.40695003,9.493951,-1.353,1781193426755
2083955187,3,0.531,10.095,-1.45305,1781193426764
2083955197,3,0.74895006,10.588051,-1.64295,1781193426773
2083955207,3,1.0189501,10.73595,-1.899,1781193426786
2083955217,3,1.2280501,10.686001,-2.04195,1781193426793
2083955228,3,1.419,10.765051,-1.9849501,1781193426803
2083955238,3,1.5960001,11.019,-1.8600001,1781193426814
2083955248,3,1.7539501,11.40705,-1.7119501,1781193426824
2083955258,3,1.9650002,11.548051,-1.64505,1781193426834
2083955268,3,2.1420002,11.404051,-1.743,1781193426845
2083955278,3,2.32395,11.023951,-1.81305,1781193426854
2083955288,3,2.4540002,10.67205,-1.6879501,1781193426865
2083955298,3,2.4079502,10.411051,-1.65495,1781193426874
2083955308,3,2.36295,10.36305,-1.6710001,1781193426885
2083955318,3,2.15205,10.55895,-1.7310001,1781193426894
2083955328,3,1.9339501,10.31505,-1.9420501,1781193426904
2083955338,3,1.7740501,9.766951,-2.1049502,1781193426914
2083955348,3,1.59405,9.394951,-2.229,1781193426924
2083955359,3,1.5409501,9.118051,-2.421,1781193426935
2083955369,3,1.6320001,9.25905,-2.5480502,1781193426945
2083955379,3,1.6990501,9.55605,-2.6890502,1781193426955
2083955389,3,1.5960001,9.43605,-2.67405,1781193426966
2083955399,3,1.4070001,9.099,-2.3749502,1781193426974
2083955409,3,1.3039501,8.91705,-2.0020502,1781193426986
2083955419,3,1.3090501,9.06495,-1.6710001,1781193426995
2083955429,3,1.2709501,9.472051,-1.38405,1781193427005
2083955439,3,1.1850001,9.92895,-1.233,1781193427016
2083955449,3,1.1029501,10.233001,-1.21605,1781193427026
2083955459,3,0.96900004,10.411051,-1.2910501,1781193427037
2083955469,3,0.924,10.453951,-1.3240501,1781193427047
2083955479,3,0.96405005,10.437,-1.506,1781193427056
2083955490,3,1.0170001,10.468051,-1.7170501,1781193427067
2083955500,3,1.00695,10.453951,-1.83405,1781193427077
2083955510,3,0.957,10.329,-2.16,1781193427085
2083955520,3,0.87600005,9.823951,-2.334,1781193427097
2083955530,3,0.675,9.15795,-2.31795,1781193427106
2083955540,3,0.52605003,8.598001,-2.16195,1781193427117
2083955550,3,0.43305,8.389951,-1.9630501,1781193427126
2083955560,3,0.34905002,8.644051,-2.052,1781193427137
2083955570,3,0.282,9.1390505,-2.2669501,1781193427147
2083955580,3,0.29205,9.51795,-2.3730001,1781193427158
2083955590,3,0.21495001,9.891001,-2.598,1781193427167
2083955600,3,0.052050002,10.129951,-2.6430001,1781193427178
2083955610,3,-0.11895001,10.297951,-2.6220002,1781193427188
2083955620,3,-0.21300001,10.39095,-2.5240502,1781193427196
2083955631,3,-0.13605,10.284,-2.397,1781193427208
2083955641,3,0.18405001,10.023001,-2.1760502,1781193427218
2083955651,3,0.43500003,9.9529505,-2.088,1781193427227
2083955661,3,0.63600004,10.096951,-1.8940501,1781193427237
2083955671,3,0.77505004,10.34595,-1.75995,1781193427248
2083955681,3,0.90495,10.6380005,-1.8649501,1781193427258
2083955691,3,1.1029501,10.69995,-2.01105,1781193427266
2083955701,3,1.35,10.485001,-2.0760002,1781193427277
2083955711,3,1.50495,10.233001,-2.02095,1781193427287
2083955721,3,1.6129501,10.102051,-1.98705,1781193427298
2083955731,3,1.7070001,10.153951,-2.00895,1781193427308
2083955741,3,1.74705,10.31505,-2.13105,1781193427318
2083955751,3,1.7950501,10.200001,-2.18805,1781193427327
2083955762,3,1.7830501,9.814051,-2.1739502,1781193427338
2083955772,3,1.659,9.490951,-2.11905,1781193427348
2083955782,3,1.5460501,9.352051,-2.06205,1781193427359
2083955792,3,1.4500501,9.361951,-2.14995,1781193427368
2083955802,3,1.3429501,9.205951,-2.2150502,1781193427379
2083955812,3,1.1869501,8.92905,-2.1430502,1781193427389
2083955822,3,1.0189501,8.742001,-1.9900501,1781193427398
2083955832,3,0.924,8.842051,-2.0059502,1781193427409
2083955842,3,0.83505005,9.084001,-2.18595,1781193427418
2083955852,3,0.77295005,9.264001,-2.3059502,1781193427427
2083955862,3,0.69405,9.4789505,-2.253,1781193427438
2083955872,3,0.56205004,9.771001,-2.0760002,1781193427448
2083955882,3,0.34905002,9.982051,-2.05005,1781193427458
2083955892,3,0.19605,9.91695,-1.9969501,1781193427470
2083955903,3,0.10005,9.56295,-1.7910001,1781193427480
2083955913,3,0.069000006,9.108001,-1.48695,1781193427489
2083955923,3,0.079050004,9.036,-1.26405,1781193427500
2083955933,3,-0.03795,9.20895,-1.056,1781193427510
2083955943,3,-0.057000004,9.35505,-1.044,1781193427519
2083955953,3,0.081,9.508051,-1.056,1781193427530
2083955963,3,0.342,9.88605,-1.1230501,1781193427540
2083955973,3,0.55695003,10.576051,-1.4269501,1781193427549
2083955983,3,0.90495,11.221951,-1.88205,1781193427560
2083955993,3,1.2780001,11.4210005,-2.325,1781193427569
2083956003,3,1.6110001,11.184001,-2.67,1781193427580
2083956013,3,1.8379501,10.83405,-2.8129501,1781193427591
2083956023,3,1.9770001,10.285951,-2.7270002,1781193427601
2083956034,3,2.02305,9.838051,-2.4130502,1781193427611
2083956044,3,1.968,9.640051,-2.01405,1781193427621
2083956054,3,1.9240501,9.58905,-1.7860501,1781193427631
2083956064,3,1.6990501,9.667951,-1.8049501,1781193427640
2083956074,3,1.48905,9.606001,-1.9710001,1781193427651
2083956084,3,1.33095,9.40995,-2.1379502,1781193427661
2083956094,3,1.029,9.394951,-2.2440002,1781193427671
2083956104,3,0.69900006,9.498,-2.18595,1781193427681
2083956114,3,0.44205,9.54405,-1.9800001,1781193427691
2083956124,3,0.27495003,9.54405,-1.6500001,1781193427701
2083956134,3,0.25305,9.783,-1.31895,1781193427711
2083956144,3,0.40695003,10.2619505,-1.2070501,1781193427722
2083956154,3,0.79395,10.674001,-1.176,1781193427731
2083956165,3,1.2040501,10.803,-1.1400001,1781193427741
2083956175,3,1.5409501,10.885051,-1.197,1781193427752
2083956185,3,1.7899501,10.9800005,-1.3410001,1781193427760
2083956195,3,2.0269501,10.818001,-1.422,1781193427772
2083956205,3,2.2360501,10.47,-1.5660001,1781193427782
2083956215,3,2.355,10.012951,-1.5799501,1781193427791
2083956225,3,2.394,9.56295,-1.4629501,1781193427803
2083956235,3,2.4820502,9.1699505,-1.4290501,1781193427812
2083956245,3,2.6140501,9.004951,-1.31505,1781193427821
2083956255,3,2.6910002,8.94795,-1.1920501,1781193427832
2083956265,3,2.7910502,9.229951,-1.41795,1781193427842
2083956275,3,2.8920002,9.486,-1.8199501,1781193427852
2083956285,3,2.913,9.111,-1.8049501,1781193427863
2083956295,3,2.67105,8.529,-1.7340001,1781193427872
2083956306,3,2.29095,8.589001,-1.9969501,1781193427882
2083956316,3,1.9030501,8.91405,-2.25105,1781193427893
2083956326,3,1.7070001,9.163051,-2.2030501,1781193427902
2083956336,3,1.6320001,9.357,-2.016,1781193427913
2083956346,3,1.55295,9.51,-1.8010501,1781193427922
2083956356,3,1.4170501,9.975,-1.7260501,1781193427932
2083956366,3,1.3069501,10.936951,-1.79805,1781193427942
2083956376,3,1.2280501,12.132001,-2.02605,1781193427954
2083956386,3,1.19895,12.70695,-2.2339501,1781193427963
2083956396,3,1.338,12.5460005,-2.3389502,1781193427974
2083956406,3,1.16505,11.565001,-2.15505,1781193427983
2083956416,3,0.87600005,10.83705,-1.932,1781193427994
2083956426,3,0.6,10.794001,-1.76505,1781193428003
2083956437,3,0.483,11.48805,-1.79805,1781193428014
2083956447,3,0.60795003,12.56805,-2.1790502,1781193428023
2083956457,3,0.78495,13.308001,-2.62905,1781193428034
2083956467,3,0.897,13.542001,-3.1750503,1781193428044
2083956477,3,1.182,13.090051,-3.7710001,1781193428054
2083956487,3,1.2229501,11.908951,-3.9580503,1781193428064
2083956497,3,0.84000003,10.22595,-3.49095,1781193428074
2083956507,3,0.52395004,8.920951,-2.6890502,1781193428085
2083956517,3,0.39495003,8.27295,-2.02605,1781193428095
2083956527,3,0.39705002,8.194051,-1.8409501,1781193428104
2083956537,3,0.32505003,8.200951,-2.028,1781193428115
2083956547,3,0.22905001,8.241,-2.49,1781193428125
2083956557,3,0.39000002,8.14605,-2.9980502,1781193428137
2083956568,3,0.76305,7.99695,-3.4020002,1781193428146
2083956578,3,0.96405005,8.08605,-3.9409502,1781193428155
2083956588,3,1.17495,8.253,-4.39305,1781193428166
2083956598,3,1.4239501,8.239051,-4.3980002,1781193428175
2083956608,3,1.4820001,8.08605,-3.97005,1781193428186
2083956618,3,1.338,8.10705,-3.42405,1781193428194
2083956628,3,1.2780001,8.48295,-3.0259502,1781193428204
2083956638,3,1.2589501,9.12705,-2.69595,1781193428214
2083956648,3,1.2400501,9.618,-2.29095,1781193428226
2083956658,3,1.12695,9.927,-1.9270501,1781193428235
2083956668,3,0.957,10.068001,-1.71405,1781193428246
2083956678,3,0.90000004,9.867001,-1.4650501,1781193428254
2083956688,3,0.92100006,9.68805,-1.1590501,1781193428265
2083956698,3,1.00695,9.91695,-0.99405,1781193428275
2083956709,3,1.2280501,10.48995,-1.2040501,1781193428284
2083956719,3,1.5460501,10.456051,-1.6140001,1781193428295
2083956729,3,1.6110001,9.637051,-1.9440001,1781193428305
2083956739,3,1.47,8.63895,-2.2440002,1781193428315
2083956749,3,1.26795,7.7220006,-2.2750502,1781193428326
2083956759,3,1.146,6.9889503,-2.2030501,1781193428335
2083956769,3,1.1200501,6.4069505,-1.9440001,1781193428346
2083956779,3,1.197,6.2260504,-1.7500501,1781193428356
2083956789,3,1.3620001,6.6559505,-1.7839501,1781193428366
2083956799,3,1.6279501,7.9249506,-2.1409502,1781193428376
2083956809,3,1.9219501,9.40005,-2.6220002,1781193428386
2083956819,3,2.15895,10.698001,-3.0649502,1781193428396
2083956829,3,2.36505,11.541,-3.3229501,1781193428406
2083956840,3,2.48895,11.90505,-3.3400502,1781193428415
2083956850,3,2.5849502,11.799001,-2.9590502,1781193428426
2083956860,3,2.50395,11.392051,-2.4180002,1781193428437
2083956870,3,2.334,10.72395,-1.7550001,1781193428447
2083956880,3,2.1060002,10.11795,-1.248,1781193428457
2083956890,3,1.8550501,9.625051,-0.93405,1781193428466
2083956900,3,1.62495,9.240001,-0.74505,1781193428477
2083956910,3,1.43595,9.393001,-0.924,1781193428487
2083956920,3,1.3930501,9.747001,-1.33395,1781193428498
2083956930,3,1.26795,9.622951,-1.7770501,1781193428507
2083956940,3,0.97605,9.28995,-2.2390501,1781193428517
2083956950,3,0.67695004,8.863951,-2.5930502,1781193428527
2083956960,3,0.48795003,8.863951,-2.8849502,1781193428538
2083956970,3,0.51705,9.4480505,-3.1560001,1781193428547
2083956981,3,0.67200005,10.284,-3.45495,1781193428558
2083956991,3,0.72705,10.5709505,-3.5749502,1781193428567
2083957001,3,0.71805006,10.059,-3.4620001,1781193428578
2083957011,3,0.64395005,9.4480505,-3.27795,1781193428588
2083957021,3,0.60495,9.1699505,-2.90895,1781193428598
2083957031,3,0.69600004,9.30405,-2.4469502,1781193428607
2083957041,3,0.87105006,9.58695,-2.1070502,1781193428618
2083957051,3,1.1149501,9.927,-1.9470001,1781193428628
2083957061,3,1.3570501,10.04205,-1.9039501,1781193428638
2083957071,3,1.4430001,9.766951,-1.9470001,1781193428648
2083957081,3,1.3810501,9.486,-1.9039501,1781193428659
2083957091,3,1.26405,9.349951,-1.8510001,1781193428668
2083957101,3,1.1890501,9.26595,-1.83405,1781193428678
2083957112,3,1.1389501,8.743951,-1.7670001,1781193428688
2083957122,3,0.99300003,8.31105,-1.6189501,1781193428697
2083957132,3,0.85695004,8.526,-1.6500001,1781193428709
2083957142,3,1.0860001,9.60105,-1.8600001,1781193428719
2083957152,3,1.3279501,10.626,-2.0299501,1781193428729
2083957162,3,1.3090501,11.055,-2.3130002,1781193428739
2083957172,3,1.1080501,9.915001,-2.32995,1781193428749
2083957182,3,0.89295006,8.742001,-1.8889501,1781193428759
2083957192,3,0.86595005,7.9180503,-1.5970501,1781193428770
2083957202,3,0.83295006,7.6759505,-1.338,1781193428780
2083957212,3,0.95205003,8.43105,-1.3980001,1781193428790
2083957222,3,1.1080501,9.331051,-1.60905,1781193428799
2083957232,3,1.065,9.99195,-1.8580501,1781193428810
2083957243,3,0.86100006,10.33905,-2.2050002,1781193428820
2083957253,3,0.624,10.068001,-2.4540002,1781193428830
2083957263,3,0.37995002,9.51,-2.4490502,1781193428838
2083957273,3,0.15300001,9.597,-2.28195,1781193428850
2083957283,3,0.30405003,10.2289505,-2.2410002,1781193428860
2083957293,3,0.49995002,10.738951,-2.11695,1781193428868
2083957303,3,0.67695004,11.64795,-1.743,1781193428880
2083957313,3,0.9670501,13.023001,-1.67595,1781193428890
2083957323,3,1.2970501,14.469001,-2.1720002,1781193428900
2083957333,3,1.79805,14.325001,-3.216,1781193428911
2083957343,3,1.8139501,11.751,-3.9889503,1781193428921
2083957353,3,1.47195,9.40305,-3.417,1781193428930
2083957363,3,1.0819501,8.0119505,-2.8470001,1781193428941
2083957373,3,0.77505004,7.6909504,-2.4130502,1781193428951
2083957384,3,0.73005,8.392051,-2.2099502,1781193428961
2083957394,3,0.93795,8.979,-2.11905,1781193428971
2083957404,3,1.02195,8.802,-2.2770002,1781193428981
2083957414,3,0.957,8.26095,-2.4420002,1781193428989
2083957424,3,0.85695004,7.6759505,-2.6940002,1781193429000
2083957434,3,0.80595005,7.45905,-2.7850502,1781193429011
2083957444,3,0.87105006,8.194051,-2.7150002,1781193429021
2083957454,3,1.1220001,9.43605,-2.50395,1781193429031
2083957464,3,1.4460001,10.389001,-2.217,1781193429041
2083957474,3,1.62495,11.158051,-2.1450002,1781193429051
2083957484,3,1.7350501,11.44995,-2.0710502,1781193429061
2083957494,3,1.89795,11.682,-1.6519501,1781193429071
2083957504,3,1.8960001,11.233951,-1.554,1781193429082
2083957515,3,1.58895,9.541051,-1.5319501,1781193429090
2083957525,3,1.338,8.265,-0.84495,1781193429102
2083957535,3,0.98100007,7.557,-0.642,1781193429112
2083957545,3,0.69105005,8.656051,-0.18705001,1781193429121
2083957555,3,1.00995,10.518001,-0.49800003,1781193429131
2083957565,3,1.43805,11.16495,-1.30005,1781193429142
2083957575,3,1.20105,9.937051,-1.8889501,1781193429152
2083957585,3,0.711,9.29205,-2.2030501,1781193429162
2083957595,3,0.49500003,9.913051,-2.16,1781193429171
2083957605,3,0.67695004,11.410951,-2.157,1781193429183
2083957615,3,1.1770501,12.771001,-2.66205,1781193429192
2083957625,3,1.6279501,11.739,-3.1750503,1781193429201
2083957635,3,1.4500501,10.42695,-3.1650002,1781193429211
2083957646,3,1.1539501,9.621,-2.9569502,1781193429221
2083957656,3,0.99105006,9.86205,-2.4850502,1781193429231
2083957666,3,1.12695,9.927,-2.32305,1781193429242
2083957676,3,1.16295,9.501,-2.121,1781193429252
2083957686,3,1.04595,9.163051,-2.28195,1781193429261
2083957696,3,1.01205,8.91195,-2.66205,1781193429271
2083957706,3,0.90195006,8.680051,-2.832,1781193429282
2083957716,3,0.77505004,8.73705,-2.6820002,1781193429292
2083957726,3,0.79200006,9.44295,-2.42805,1781193429302
2083957736,3,1.10595,11.092951,-2.49195,1781193429312
2083957746,3,1.5460501,12.604051,-2.8470001,1781193429322
2083957756,3,2.0029502,12.522,-3.01395,1781193429333
2083957766,3,1.8049501,10.639951,-2.59095,1781193429343
2083957776,3,1.4290501,9.36705,-1.9560001,1781193429352
2083957787,3,1.31895,8.65305,-1.12995,1781193429363
2083957797,3,1.16805,8.62695,-0.702,1781193429372
2083957807,3,1.01205,8.433001,-0.50805,1781193429383
2083957817,3,0.84195006,7.93695,-0.36195,1781193429393
2083957827,3,0.59595,7.3960505,-0.45705003,1781193429402
2083957837,3,0.38295,6.9079504,-0.702,1781193429412
2083957847,3,0.17205001,6.5059505,-0.864,1781193429423
2083957857,3,-0.01905,6.5680504,-0.91200006,1781193429434
2083957867,3,-0.20805001,7.5730505,-0.84300005,1781193429443
2083957877,3,-0.25800002,9.69495,-0.66795003,1781193429453
2083957887,3,0.076050006,12.199051,-0.53895,1781193429463
2083957897,3,0.57705003,14.713051,-0.402,1781193429474
2083957907,3,1.3549501,16.591951,-0.78300005,1781193429483
2083957918,3,2.2789502,15.976951,-1.8409501,1781193429495
2083957928,3,2.8530002,13.5730505,-2.4880502,1781193429504
2083957938,3,2.70705,11.13405,-1.9249501,1781193429515
2083957948,3,2.3170502,9.625051,-1.2240001,1781193429525
2083957958,3,1.8600001,9.196951,-0.74700004,1781193429535
2083957968,3,1.3810501,9.027,-0.52005005,1781193429546
2083957978,3,0.92100006,8.778001,-0.402,1781193429554
2083957988,3,0.51195,8.727,-0.56295,1781193429564
2083957998,3,0.31305,8.521951,-0.88095003,1781193429575
2083958008,3,0.24405001,8.1,-0.84300005,1781193429584
2083958018,3,0.061950002,8.15505,-0.69900006,1781193429596
2083958028,3,-0.15,9.56295,-0.45000002,1781193429604
2083958038,3,0.21705002,12.08895,-0.80505,1781193429615
2083958048,3,0.83295006,13.582951,-1.7719501,1781193429626
2083958059,3,1.5130501,13.10595,-2.502,1781193429634
2083958069,3,1.7380501,12.373951,-2.56395,1781193429644
2083958079,3,1.70895,11.422951,-2.11905,1781193429656
2083958089,3,1.5130501,10.30305,-1.5280501,1781193429666
2083958099,3,1.2210001,9.393001,-0.96000004,1781193429675
2083958109,3,1.0530001,8.536051,-0.28995,1781193429687
2083958119,3,0.84195006,8.62005,0.16605,1781193429696
2083958129,3,0.84000003,9.261001,0.162,1781193429707
2083958139,3,0.90000004,9.34305,0.01305,1781193429715
2083958149,3,0.76305,8.95995,-0.07005,1781193429727
2083958159,3,0.56700003,9.193951,-0.16095,1781193429737
2083958169,3,0.67200005,9.71895,-0.47400004,1781193429746
2083958179,3,0.87105006,9.56505,-1.1590501,1781193429757
2083958190,3,0.75105006,9.111,-1.7530501,1781193429767
2083958200,3,0.60300004,8.658,-2.11695,1781193429776
2083958210,3,0.60495,8.361,-2.1739502,1781193429786
2083958220,3,0.648,8.28705,-1.82895,1781193429799
2083958230,3,0.59595,8.727,-1.60395,1781193429806
2083958240,3,0.66495,9.394951,-1.5160501,1781193429820
2083958250,3,0.86595005,10.071,-1.52295,1781193429826
2083958260,3,1.09095,10.663951,-1.6110001,1781193429835
2083958270,3,1.194,11.188951,-1.7359501,1781193429845
2083958280,3,1.3399501,11.48595,-1.4820001,1781193429856
2083958290,3,1.3240501,11.976001,-1.1040001,1781193429867
2083958300,3,1.3950001,12.517051,-1.10595,1781193429876
2083958310,3,1.6180501,12.697051,-1.18305,1781193429887
2083958321,3,1.9009501,12.166051,-1.5589501,1781193429897
2083958331,3,1.7190001,10.39095,-1.7670001,1781193429907
2083958341,3,1.3429501,8.775001,-1.386,1781193429917
2083958351,3,1.07505,7.4710503,-1.04595,1781193429928
2083958361,3,0.79395,6.4410005,-0.65595,1781193429938
2083958371,3,0.56895,6.1270504,-0.40005,1781193429948
2083958381,3,0.32505003,6.8599505,-0.27495003,1781193429958
2083958391,3,0.462,8.47395,-0.46695003,1781193429968
2083958401,3,0.46605003,9.312,-0.96495,1781193429978
2083958411,3,0.28695002,9.276,-1.33395,1781193429988
2083958421,3,0.24405001,9.43395,-1.5679501,1781193429997
2083958431,3,0.49500003,10.285951,-1.5439501,1781193430009
2083958441,3,0.82095003,11.284051,-1.5469501,1781193430019
2083958451,3,1.1370001,11.85,-1.6020001,1781193430028
2083958462,3,1.2970501,11.81805,-1.5079501,1781193430038
2083958472,3,1.4170501,12.109951,-1.0849501,1781193430049
2083958482,3,1.64205,12.661051,-0.95100003,1781193430058
2083958492,3,1.8739501,12.996,-1.1920501,1781193430068
2083958502,3,2.262,12.015,-1.7410501,1781193430078
2083958512,3,2.26395,10.24995,-1.7770501,1781193430088
2083958522,3,1.9480501,8.92905,-1.55595,1781193430097
2083958532,3,1.6540501,8.1,-1.2709501,1781193430109
2083958542,3,1.4929501,7.7629504,-0.86205006,1781193430119
2083958552,3,1.3740001,7.9920006,-0.55095005,1781193430130
2083958562,3,1.4170501,8.265,-0.54105,1781193430139
2083958572,3,1.5270001,8.698951,-0.90000004,1781193430150
2083958582,3,1.6159501,8.907001,-1.5799501,1781193430159
2083958593,3,1.60395,8.64795,-2.2099502,1781193430170
2083958603,3,1.36695,8.27505,-2.46105,1781193430180
2083958613,3,1.16805,8.13795,-2.232,1781193430190
2083958623,3,1.194,8.694,-1.8559501,1781193430198
2083958633,3,1.33095,9.498,-1.4080501,1781193430209
2083958643,3,1.33305,9.835951,-1.22595,1781193430219
2083958653,3,1.21095,9.261001,-1.3549501,1781193430229
2083958663,3,0.96900004,8.713051,-1.422,1781193430239
2083958673,3,0.76995003,8.874001,-1.4059501,1781193430250
2083958683,3,0.77295005,9.534,-1.212,1781193430259
2083958693,3,0.82995003,10.798051,-0.72795004,1781193430269
2083958703,3,1.0309501,12.370951,-0.25605002,1781193430281
2083958713,3,1.3549501,13.794001,-0.24195,1781193430290
2083958724,3,1.7659501,14.335051,-0.771,1781193430299
2083958734,3,2.39595,12.76605,-1.743,1781193430310
2083958744,3,2.45805,10.53495,-1.6860001,1781193430320
2083958754,3,2.1060002,8.859,-1.3939501,1781193430331
2083958764,3,1.8739501,7.6740003,-0.80895007,1781193430341
2083958774,3,1.6200001,7.03695,-0.46695003,1781193430350
2083958784,3,1.2730501,7.2000003,-0.31605002,1781193430360
2083958794,3,1.02705,7.6740003,-0.43800002,1781193430370
2083958804,3,0.88500005,7.8250504,-0.79695004,1781193430381
2083958814,3,0.675,7.497,-1.09395,1781193430390
2083958824,3,0.402,6.9750004,-1.365,1781193430401
2083958834,3,0.109950006,6.1849504,-1.386,1781193430412
2083958844,3,-0.20805001,5.85405,-1.092,1781193430420
2083958854,3,-0.61200005,7.9249506,0.0010500001,1781193430431
2083958865,3,-0.73905003,13.19505,0.73905003,1781193430441
2083958875,3,-0.25995,17.883001,-0.07005,1781193430452
2083958885,3,0.86100006,17.59095,-0.984,1781193430462
2083958895,3,1.6900501,15.510001,-1.779,1781193430472
2083958905,3,1.9240501,13.863001,-1.7809501,1781193430482
2083958915,3,2.025,12.313951,-1.176,1781193430491
2083958925,3,1.7329501,11.60505,-0.45705003,1781193430502
2083958935,3,1.539,11.04705,-0.33795002,1781193430512
2083958945,3,1.3620001,10.269,-0.28695002,1781193430522
2083958955,3,1.3590001,9.667951,-0.48105,1781193430531
2083958965,3,1.3470001,9.19005,-0.90495,1781193430543
2083958975,3,1.16295,8.839951,-1.3429501,1781193430551
2083958985,3,0.92805004,8.47395,-1.4970001,1781193430563
2083958996,3,0.77805007,8.15505,-1.4080501,1781193430572
2083959006,3,0.63600004,8.136001,-1.3120501,1781193430581
2083959016,3,0.59805006,8.54595,-1.48695,1781193430592
2083959026,3,0.73905003,9.237,-1.4989501,1781193430603
2083959036,3,0.90195006,9.931951,-1.7689501,1781193430612
2083959046,3,0.96405005,10.209001,-1.8199501,1781193430622
2083959056,3,0.81795,10.240951,-1.4650501,1781193430633
2083959066,3,0.768,10.48005,-0.975,1781193430643
2083959076,3,0.74205005,11.569051,-0.35700002,1781193430653
2083959086,3,0.75795,13.651951,0.14295001,1781193430663
2083959096,3,0.86100006,15.32295,0.23595001,1781193430673
2083959106,3,1.4820001,13.97805,0.006,1781193430683
2083959116,3,1.4929501,10.84605,-0.51495004,1781193430692
2083959126,3,1.1200501,8.90205,-0.049950004,1781193430703
2083959137,3,0.75600004,7.8079505,0.054,1781193430714
2083959147,3,0.21300001,7.9690504,0.39195,1781193430724
2083959157,3,-0.061950002,8.160001,0.54495,1781193430734
2083959167,3,-0.07395,8.16195,0.40095,1781193430743
2083959177,3,0.057000004,7.9519506,0.26895002,1781193430753
2083959187,3,0.061950002,7.9159503,0.028050002,1781193430763
2083959197,3,-0.105000004,7.90395,-0.56805,1781193430772
2083959207,3,-0.28695002,8.02095,-1.2280501,1781193430785
2083959217,3,-0.30105,8.23695,-1.75995,1781193430793
2083959227,3,-0.23700002,8.478001,-2.1690001,1781193430805
2083959237,3,-0.064050004,9.03195,-2.29095,1781193430815
2083959247,3,0.124050006,10.152,-2.1090002,1781193430825
2083959257,3,0.37305,12.000001,-1.164,1781193430835
2083959268,3,0.591,14.434951,-0.41205,1781193430845
2083959278,3,1.00995,15.867001,-1.4610001,1781193430853
2083959288,3,2.094,12.994051,-2.80605,1781193430865
2083959298,3,2.319,10.44705,-2.8159502,1781193430875
2083959308,3,2.1420002,8.019,-2.3110502,1781193430886
2083959318,3,1.8570001,6.2710505,-1.7569501,1781193430895
2083959328,3,1.5150001,5.17005,-1.2430501,1781193430905
2083959338,3,1.09095,4.782,-0.96300006,1781193430916
2083959348,3,0.87105006,4.8850503,-0.73005,1781193430926
2083959358,3,0.675,5.50005,-0.441,1781193430934
2083959368,3,0.90495,7.1689506,-0.79305005,1781193430945
2083959378,3,1.4260501,8.920951,-1.4440501,1781193430955
2083959388,3,2.26395,9.42195,-2.121,1781193430966
2083959399,3,2.8609502,8.919001,-2.052,1781193430975
2083959409,3,3.045,8.79,-1.5109501,1781193430985
2083959419,3,2.83905,9.74295,-1.26195,1781193430996
2083959429,3,2.50395,11.33205,-1.48695,1781193431005
2083959439,3,2.2480502,12.096001,-1.14495,1781193431015
2083959449,3,1.845,10.992001,-0.94605005,1781193431026
2083959459,3,1.7070001,9.604051,-0.273,1781193431036
2083959469,3,1.28505,8.81595,0.109050006,1781193431045
2083959479,3,0.84000003,8.172,0.022950001,1781193431056
2083959489,3,0.46395,7.8820505,0.23805001,1781193431066
2083959499,3,0.27705002,7.9609504,0.43905002,1781193431076
2083959509,3,0.22005,8.45205,0.40800002,1781193431087
2083959519,3,0.42795002,8.77305,0.07305,1781193431097
2083959529,3,0.76305,8.67195,-0.393,1781193431105
2083959540,3,0.83505005,8.70405,-0.93900007,1781193431116
2083959550,3,0.66495,9.333,-1.30005,1781193431126
2083959560,3,0.70305,10.417951,-1.2760501,1781193431138
2083959570,3,0.91905004,11.64105,-1.7740501,1781193431147
2083959580,3,1.1539501,12.25395,-2.08995,1781193431157
2083959590,3,1.1770501,11.31795,-2.04195,1781193431167
2083959600,3,0.90705,11.422951,-1.17795,1781193431177
2083959610,3,1.0000501,11.63595,-0.45000002,1781193431187
2083959620,3,1.0860001,12.493951,0.054,1781193431198
2083959630,3,1.3450501,13.69995,0.36795002,1781193431207
2083959640,3,1.7740501,13.97595,-0.12195001,1781193431218
2083959650,3,2.5800002,12.343051,-1.0849501,1781193431227
2083959660,3,2.976,11.377951,-0.90300006,1781193431237
2083959671,3,2.97795,10.99005,-0.81405,1781193431248
2083959681,3,2.4750001,10.98495,-1.2280501,1781193431258
2083959691,3,2.1379502,10.36005,-1.4749501,1781193431267
2083959701,3,1.82895,9.585,-1.57605,1781193431276
2083959711,3,1.6180501,8.601001,-1.5799501,1781193431287
2083959721,3,1.47,7.96395,-1.45305,1781193431297
2083959731,3,1.314,8.313001,-1.269,1781193431308
2083959741,3,1.386,9.184951,-1.40295,1781193431318
2083959751,3,1.4460001,9.382951,-1.7479501,1781193431328
2083959761,3,1.4070001,9.108001,-2.0640001,1781193431338
2083959771,3,1.21095,9.453,-2.01795,1781193431347
2083959781,3,1.1580001,10.20705,-1.7839501,1781193431359
2083959791,3,1.2900001,10.81995,-1.8919501,1781193431368
2083959802,3,1.52505,11.112,-2.04705,1781193431379
2083959812,3,1.74705,11.34405,-2.04195,1781193431389
2083959822,3,1.67505,11.707951,-2.112,1781193431399
2083959832,3,1.40505,11.3539505,-2.09505,1781193431409
2083959842,3,1.10595,10.948951,-1.79295,1781193431417
2083959852,3,0.88995004,10.911,-1.5829501,1781193431428
2083959862,3,0.77505004,10.600051,-1.6620001,1781193431439
2083959872,3,0.61200005,10.047001,-1.6999501,1781193431449
2083959882,3,0.41400003,9.658951,-1.72395,1781193431459
2083959892,3,0.26505002,9.22095,-1.7530501,1781193431469
2083959902,3,-0.093,9.199051,-1.6900501,1781193431479
2083959912,3,-0.507,9.325951,-1.779,1781193431489
2083959922,3,-0.68205005,9.313951,-2.13105,1781193431500
2083959932,3,-0.78195006,9.336,-2.3779502,1781193431510
2083959943,3,-0.84195006,9.0,-2.38995,1781193431518
2083959953,3,-0.79695004,8.409,-2.2050002,1781193431530
2083959963,3,-0.81405,7.9470005,-1.7670001,1781193431539
2083959973,3,-0.81105006,7.9159503,-1.02195,1781193431550
2083959983,3,-0.98595005,9.004951,-0.46905002,1781193431560
2083959993,3,-0.63195,10.21905,-0.55305004,1781193431570
2083960003,3,0.00405,11.059051,-0.81705004,1781193431580
2083960013,3,1.10595,10.56105,-0.91005003,1781193431590
2083960023,3,1.6159501,9.7879505,-1.03695,1781193431600
2083960033,3,0.97605,9.786,-0.43605003,1781193431610
2083960043,3,0.32505003,10.36695,-0.40500003,1781193431620
2083960053,3,0.423,10.69995,-0.33795002,1781193431630
2083960063,3,1.00995,10.35795,-0.75705004,1781193431640
2083960074,3,1.3450501,9.40995,-1.24995,1781193431651
2083960084,3,1.12695,8.78295,-1.14495,1781193431661
2083960094,3,0.83505005,8.043,-1.116,1781193431670
2083960104,3,0.62895006,7.6189504,-0.95100003,1781193431681
2083960114,3,0.37800002,8.269951,-0.79305005,1781193431691
2083960124,3,0.39900002,9.175051,-0.94305,1781193431701
2083960134,3,0.62895006,9.486,-0.97005004,1781193431711
2083960144,3,0.91395,9.38805,-1.03005,1781193431721
2083960154,3,0.94305,9.309,-1.1400001,1781193431731
2083960164,3,0.62700003,9.66405,-1.02495,1781193431741
2083960174,3,0.47595003,10.309951,-0.666,1781193431750
2083960184,3,0.59295005,10.786051,-0.726,1781193431762
2083960194,3,0.84195006,11.107051,-0.83595,1781193431771
2083960204,3,1.19895,10.633051,-1.3290001,1781193431781
2083960215,3,1.098,10.144951,-1.50405,1781193431792
2083960225,3,0.72495,10.420051,-1.149,1781193431801
2083960235,3,0.57405,10.482,-1.08,1781193431812
2083960245,3,0.77295005,9.714001,-1.0819501,1781193431822
2083960255,3,0.80595005,9.41895,-1.1689501,1781193431831
2083960265,3,0.69405,9.25905,-1.1659501,1781193431842
2083960275,3,0.52095,9.453,-0.85695004,1781193431852
2083960285,3,0.49500003,9.891001,-0.855,1781193431862
