icm4n607_acc,iven_sense,2026-06-11_16-56-21.805_Active 10 Pro
imuTimestamp,accuracy(more=better),acc_x[m/s^2],acc_y[m/s^2],acc_z[m/s^2],utcTimestamp(millis)
2076713401,3,-1.2210001,0.52695,9.92805,1781186184978
2076713411,3,-1.21305,0.56100005,9.894,1781186184988
2076713421,3,-1.1869501,0.55095005,9.870001,1781186184998
2076713431,3,-1.1530501,0.48900002,9.825001,1781186185007
2076713441,3,-1.14405,0.46500003,9.801001,1781186185018
2076713451,3,-1.13205,0.43905002,9.75,1781186185027
2076713461,3,-1.11,0.453,9.70005,1781186185039
2076713471,3,-1.11,0.50295,9.67605,1781186185048
2076713481,3,-1.098,0.54195005,9.715051,1781186185058
2076713491,3,-1.08405,0.56295,9.798,1781186185067
2076713501,3,-1.09095,0.56595004,9.817051,1781186185078
2076713511,3,-1.1080501,0.56595004,9.79605,1781186185088
2076713521,3,-1.1149501,0.582,9.798,1781186185098
2076713532,3,-1.1340001,0.582,9.82005,1781186185107
2076713542,3,-1.1340001,0.58500004,9.86295,1781186185117
2076713552,3,-1.1530501,0.56595004,9.870001,1781186185128
2076713562,3,-1.146,0.54405004,9.8890505,1781186185138
2076713572,3,-1.12695,0.52305,9.892051,1781186185148
2076713582,3,-1.11,0.49605003,9.846001,1781186185158
2076713592,3,-1.08405,0.52500004,9.769951,1781186185168
2076713602,3,-1.0699501,0.546,9.693001,1781186185179
2076713612,3,-1.0699501,0.558,9.645,1781186185189
2076713622,3,-1.077,0.52995,9.703051,1781186185199
2076713632,3,-1.09605,0.48900002,9.774,1781186185210
2076713642,3,-1.11,0.513,9.786,1781186185219
2076713652,3,-1.113,0.549,9.754951,1781186185230
2076713663,3,-1.098,0.582,9.681001,1781186185240
2076713673,3,-1.0860001,0.606,9.616051,1781186185250
2076713683,3,-1.09395,0.61800003,9.607051,1781186185260
2076713693,3,-1.1010001,0.61800003,9.628051,1781186185270
2076713703,3,-1.0699501,0.59205,9.69795,1781186185281
2076713713,3,-1.074,0.53505003,9.766951,1781186185291
2076713723,3,-1.0720501,0.51105005,9.8560505,1781186185300
2076713733,3,-1.11,0.52695,9.892051,1781186185310
2076713743,3,-1.14195,0.57795,9.84405,1781186185320
2076713753,3,-1.1580001,0.60405004,9.798,1781186185330
2076713763,3,-1.16805,0.64005005,9.745951,1781186185340
2076713773,3,-1.149,0.66405004,9.753,1781186185351
2076713783,3,-1.1509501,0.61605,9.814951,1781186185360
2076713794,3,-1.1770501,0.54405004,9.901051,1781186185371
2076713804,3,-1.182,0.53205,9.901051,1781186185380
2076713814,3,-1.16295,0.53895,9.882001,1781186185391
2076713824,3,-1.1560501,0.537,9.813001,1781186185402
2076713834,3,-1.1730001,0.573,9.75,1781186185410
2076713844,3,-1.1509501,0.60405004,9.748051,1781186185421
2076713854,3,-1.14195,0.63495004,9.736051,1781186185430
2076713864,3,-1.1200501,0.64005005,9.736051,1781186185442
2076713874,3,-1.098,0.61395,9.769951,1781186185451
2076713884,3,-1.1010001,0.59895,9.81,1781186185461
2076713894,3,-1.1029501,0.57795,9.84405,1781186185472
2076713904,3,-1.113,0.56595004,9.858001,1781186185481
2076713914,3,-1.146,0.558,9.82695,1781186185491
2076713925,3,-1.1580001,0.63495004,9.760051,1781186185501
2076713935,3,-1.18005,0.71205,9.71205,1781186185511
2076713945,3,-1.2060001,0.78405005,9.68595,1781186185522
2076713955,3,-1.19895,0.80505,9.729,1781186185532
2076713965,3,-1.17495,0.74295,9.814951,1781186185542
2076713975,3,-1.18005,0.68805003,9.85305,1781186185552
2076713985,3,-1.1580001,0.64005005,9.934951,1781186185561
2076713995,3,-1.1530501,0.60195005,9.98295,1781186185573
2076714005,3,-1.1560501,0.60405004,9.942,1781186185583
2076714015,3,-1.14195,0.642,9.880051,1781186185592
2076714025,3,-1.125,0.67305005,9.790951,1781186185602
2076714035,3,-1.1389501,0.71205,9.71205,1781186185613
2076714045,3,-1.1200501,0.72795004,9.68805,1781186185624
2076714055,3,-1.1029501,0.69495004,9.68295,1781186185633
2076714066,3,-1.08405,0.65205,9.67395,1781186185643
2076714076,3,-1.1080501,0.62295,9.71205,1781186185653
2076714086,3,-1.1220001,0.64905006,9.736051,1781186185663
2076714096,3,-1.1220001,0.73095006,9.786,1781186185673
2076714106,3,-1.1179501,0.795,9.729,1781186185683
2076714116,3,-1.12995,0.79305005,9.66195,1781186185693
2076714126,3,-1.1179501,0.82695,9.613951,1781186185703
2076714136,3,-1.098,0.83595,9.621,1781186185713
2076714146,3,-1.1149501,0.81495005,9.63105,1781186185724
2076714156,3,-1.09095,0.795,9.669001,1781186185734
2076714166,3,-1.0720501,0.80295,9.67605,1781186185744
2076714176,3,-1.12995,0.846,9.66195,1781186185754
2076714186,3,-1.182,0.882,9.69495,1781186185764
2076714197,3,-1.2040501,0.915,9.802951,1781186185774
2076714207,3,-1.197,0.90105003,9.837001,1781186185784
2076714217,3,-1.1730001,0.88395005,9.85095,1781186185794
2076714227,3,-1.18005,0.85995007,9.849001,1781186185804
2076714237,3,-1.16805,0.84300005,9.83895,1781186185814
2076714247,3,-1.1560501,0.79995006,9.82695,1781186185825
2076714257,3,-1.146,0.77895004,9.777,1781186185835
2076714267,3,-1.1340001,0.81900007,9.727051,1781186185845
2076714277,3,-1.1080501,0.80700004,9.69495,1781186185854
2076714287,3,-1.11,0.85995007,9.68805,1781186185864
2076714297,3,-1.1389501,0.93900007,9.68295,1781186185876
2076714307,3,-1.161,0.975,9.66195,1781186185885
2076714317,3,-1.1850001,0.96300006,9.69795,1781186185895
2076714328,3,-1.197,0.91305006,9.733951,1781186185905
2076714338,3,-1.23195,0.90795004,9.784051,1781186185915
2076714348,3,-1.2730501,0.91995007,9.8220005,1781186185925
2076714358,3,-1.2709501,0.9580501,9.837001,1781186185935
2076714368,3,-1.2780001,1.011,9.825001,1781186185945
2076714378,3,-1.2730501,1.03995,9.777,1781186185956
2076714388,3,-1.2760501,1.00905,9.757951,1781186185967
2076714398,3,-1.30005,1.00395,9.79605,1781186185976
2076714408,3,-1.27995,0.99405,9.868051,1781186185985
2076714418,3,-1.27995,1.023,9.86295,1781186185996
2076714428,3,-1.27995,1.03005,9.85095,1781186186006
2076714438,3,-1.28295,1.0180501,9.84105,1781186186016
2076714448,3,-1.2589501,0.99195004,9.894,1781186186026
2076714458,3,-1.23,0.96495,9.916051,1781186186036
2076714469,3,-1.20105,0.906,9.955951,1781186186046
2076714479,3,-1.1770501,0.93195003,9.954,1781186186057
2076714489,3,-1.17495,0.99705005,9.868051,1781186186067
2076714499,3,-1.13205,1.00905,9.84105,1781186186078
2076714509,3,-1.1389501,0.9990001,9.97605,1781186186087
2076714519,3,-1.161,1.011,10.102051,1781186186096
2076714529,3,-1.2280501,0.99195004,10.411051,1781186186107
2076714539,3,-1.1890501,0.97695005,10.74195,1781186186116
2076714549,3,-1.1509501,0.87705004,10.773001,1781186186126
2076714559,3,-0.97395,0.82905006,10.251,1781186186136
2076714569,3,-0.82095003,0.83100003,9.295951,1781186186146
2076714579,3,-0.69600004,0.52500004,9.099,1781186186156
2076714589,3,-0.72300005,0.76005006,10.156951,1781186186166
2076714600,3,-0.75795,0.13005,10.78005,1781186186176
2076714610,3,-0.90195006,0.55095005,11.223001,1781186186186
2076714620,3,-1.16805,0.85800004,11.173051,1781186186196
2076714630,3,-1.10595,1.1710501,10.878,1781186186207
2076714640,3,-1.04805,1.69305,10.465951,1781186186219
2076714650,3,-0.043050002,0.30900002,10.264951,1781186186227
2076714660,3,0.08595,0.216,11.083951,1781186186239
2076714670,3,-0.57900006,1.9810501,11.950951,1781186186248
2076714680,3,-1.2919501,3.9060001,10.12395,1781186186258
2076714690,3,-2.3050501,5.6010003,7.359,1781186186267
2076714700,3,-3.3990002,7.93695,6.20205,1781186186278
2076714710,3,-3.3730502,8.7300005,6.1710005,1781186186287
2076714720,3,-2.66205,6.32805,7.04295,1781186186298
2076714731,3,-2.2069502,4.473,8.323951,1781186186307
2076714741,3,-1.8960001,4.1779504,9.70005,1781186186318
2076714751,3,-1.4580001,3.7740002,10.344001,1781186186328
2076714761,3,-1.2090001,3.3979502,10.063951,1781186186338
2076714771,3,-0.91905004,3.5029502,10.045051,1781186186348
2076714781,3,-0.66495,4.89405,9.537001,1781186186358
2076714791,3,-0.73200005,4.8580503,9.18795,1781186186369
2076714801,3,-1.4100001,5.301,7.8780003,1781186186379
2076714811,3,-1.98405,6.1660504,7.5600004,1781186186389
2076714821,3,-2.1060002,6.28305,8.319,1781186186399
2076714831,3,-2.12805,6.1780505,8.464951,1781186186408
2076714841,3,-1.5990001,6.1320004,8.781,1781186186420
2076714851,3,-1.39995,5.7439504,8.07495,1781186186429
2076714861,3,-1.6990501,5.3040004,7.1740503,1781186186440
2076714872,3,-1.3039501,5.40705,7.4230504,1781186186449
2076714882,3,-0.90000004,6.1920004,7.60305,1781186186459
2076714892,3,-0.43005002,6.63705,7.6699505,1781186186470
2076714902,3,-0.25095,6.7309504,6.8560505,1781186186480
2076714912,3,-0.43995002,6.5820003,6.1210504,1781186186489
2076714922,3,-0.60300004,6.7189503,5.307,1781186186500
2076714932,3,-0.72495,7.18305,4.4830503,1781186186509
2076714942,3,-0.52395004,7.7029505,3.834,1781186186519
2076714952,3,-0.70305,7.767,3.8460002,1781186186529
2076714962,3,-1.43595,7.1070004,4.05,1781186186539
2076714972,3,-1.3789501,6.4360504,4.19805,1781186186549
2076714982,3,-1.40205,5.787,4.914,1781186186560
2076714992,3,-1.2540001,5.493,5.64195,1781186186569
2076715003,3,-1.5270001,5.6719503,5.98005,1781186186580
2076715013,3,-1.491,5.3179502,6.597,1781186186590
2076715023,3,-1.13205,5.7730503,6.36705,1781186186600
2076715033,3,-0.402,5.8710003,6.7720504,1781186186610
2076715043,3,0.23400001,5.91405,7.1239505,1781186186620
2076715053,3,0.49995002,5.9359503,7.1620502,1781186186630
2076715063,3,0.63600004,5.99805,7.1650505,1781186186640
2076715073,3,0.95505005,5.8710003,7.3159504,1781186186650
2076715083,3,0.54105,6.702,6.6070504,1781186186660
2076715093,3,0.31305,6.609,6.76695,1781186186670
2076715103,3,0.79695004,6.6469502,6.609,1781186186680
2076715113,3,1.0189501,7.0080004,7.1260505,1781186186690
2076715123,3,0.70095,7.2910504,6.9949503,1781186186701
2076715134,3,0.17895001,7.5109506,6.4510503,1781186186710
2076715144,3,-0.10695001,7.4680505,6.4819503,1781186186720
2076715154,3,-0.112050004,7.3410006,6.66195,1781186186729
2076715164,3,0.12900001,7.1280003,7.038,1781186186740
2076715174,3,0.93795,6.5820003,7.5930004,1781186186750
2076715184,3,2.463,5.0500503,9.151951,1781186186762
2076715194,3,3.0589502,5.32305,8.007,1781186186772
2076715204,3,1.7880001,7.1140504,6.46995,1781186186781
2076715214,3,0.61200005,7.7770505,6.15,1781186186790
2076715224,3,-0.33,8.26095,6.21705,1781186186800
2076715234,3,-1.09095,8.517,6.70305,1781186186810
2076715244,3,-1.8550501,8.6959505,7.3830004,1781186186821
2076715254,3,-2.118,8.61495,8.06505,1781186186830
2076715264,3,-1.8360001,8.46195,8.247001,1781186186841
2076715275,3,-1.1530501,8.304001,7.9810505,1781186186851
2076715285,3,-0.34695002,8.12895,7.8810005,1781186186863
2076715295,3,0.19305001,7.9470005,7.62195,1781186186872
2076715305,3,0.402,7.9399505,7.143,1781186186883
2076715315,3,0.88305,7.7460003,6.5809503,1781186186893
2076715325,3,1.5439501,7.281,6.7099504,1781186186902
2076715335,3,2.8819501,7.1070004,4.4209504,1781186186912
2076715345,3,3.4020002,7.7890506,4.296,1781186186923
2076715355,3,2.9250002,8.44005,4.66995,1781186186933
2076715365,3,2.082,8.72505,4.9450502,1781186186942
2076715375,3,1.07505,8.13405,5.6950502,1781186186953
2076715385,3,0.45705003,7.99695,7.0309505,1781186186964
2076715395,3,0.13605,8.76795,6.7770004,1781186186973
2076715406,3,0.39495003,8.668051,5.9170504,1781186186984
2076715416,3,0.483,8.389951,5.103,1781186186993
2076715426,3,0.423,8.404051,4.56195,1781186187003
2076715436,3,0.62895006,8.16195,3.83205,1781186187013
2076715446,3,1.113,7.5379505,2.8189502,1781186187023
2076715456,3,1.728,7.083,1.9960501,1781186187034
2076715466,3,1.881,7.31505,1.4089501,1781186187044
2076715476,3,1.4959501,8.03295,0.822,1781186187053
2076715486,3,0.85905004,8.31795,0.55005,1781186187064
2076715496,3,1.0720501,8.124001,0.16605,1781186187074
2076715506,3,1.07505,8.052,-0.30705002,1781186187084
2076715516,3,1.1010001,8.16195,-0.333,1781186187094
2076715526,3,1.18005,8.49495,-0.12495001,1781186187103
2076715537,3,1.3090501,8.67,-0.132,1781186187114
2076715547,3,1.4650501,8.674951,-0.50805,1781186187124
2076715557,3,1.70895,8.34,-0.87900007,1781186187135
2076715567,3,1.9459502,7.8030005,-1.3579501,1781186187145
2076715577,3,2.01105,7.5160503,-1.7719501,1781186187157
2076715587,3,2.0370002,7.7239504,-1.9390501,1781186187165
2076715597,3,2.08005,8.34405,-1.79805,1781186187176
2076715607,3,2.0629501,8.787001,-1.72905,1781186187184
2076715617,3,2.04705,9.03405,-1.8409501,1781186187194
2076715627,3,1.6900501,9.679951,-2.1360002,1781186187206
2076715637,3,1.5319501,10.035001,-2.3779502,1781186187216
2076715647,3,1.5490501,10.023001,-2.5210502,1781186187224
2076715657,3,1.64205,9.84105,-2.3490002,1781186187235
2076715668,3,1.9339501,9.63,-1.83405,1781186187245
2076715678,3,1.9099501,10.066051,-1.2430501,1781186187255
2076715688,3,1.8190501,10.597051,-0.80895007,1781186187265
2076715698,3,1.9080001,10.791,-0.60795003,1781186187275
2076715708,3,1.695,11.200951,-0.85695004,1781186187285
2076715718,3,1.5319501,11.469001,-1.2570001,1781186187296
2076715728,3,1.3789501,11.481001,-1.6279501,1781186187306
2076715738,3,1.197,11.409,-1.779,1781186187316
2076715748,3,1.10595,11.196,-1.6620001,1781186187325
2076715758,3,1.31895,10.662001,-1.3740001,1781186187336
2076715768,3,1.491,10.129951,-1.09395,1781186187346
2076715778,3,1.5340501,9.868951,-0.81900007,1781186187356
2076715788,3,1.6129501,9.90795,-0.45495003,1781186187366
2076715798,3,1.55295,10.269,-0.14895001,1781186187376
2076715809,3,1.3789501,10.786051,0.01305,1781186187386
2076715819,3,1.32105,11.016001,0.0010500001,1781186187396
2076715829,3,1.455,10.875001,-0.076950006,1781186187410
2076715839,3,1.6300501,10.67205,-0.40695003,1781186187417
2076715849,3,1.7040001,10.581,-0.73995006,1781186187427
2076715859,3,1.8690001,10.420051,-0.915,1781186187438
2076715869,3,1.95105,10.42695,-1.01505,1781186187447
2076715879,3,1.9459502,10.533001,-0.85995007,1781186187455
2076715889,3,2.05395,10.626,-0.45495003,1781186187468
2076715899,3,2.0659502,10.746,-0.132,1781186187476
2076715909,3,2.02305,10.803,0.10695001,1781186187486
2076715919,3,2.22405,10.64295,0.30105,1781186187497
2076715929,3,2.43705,10.36995,0.39405003,1781186187506
2076715940,3,2.67105,10.128,0.432,1781186187516
2076715950,3,2.7859502,10.128,0.35595003,1781186187527
2076715960,3,2.9850001,9.99405,0.25305,1781186187536
2076715970,3,3.3319502,9.646951,0.17400001,1781186187547
2076715980,3,3.56205,9.40695,-0.094050005,1781186187557
2076715990,3,3.7200003,9.295051,-0.37800002,1781186187567
2076716000,3,3.7030501,9.361951,-0.56505,1781186187577
2076716010,3,3.5790002,9.451051,-0.77295005,1781186187587
2076716020,3,3.6000001,9.283051,-1.04595,1781186187598
2076716030,3,3.76095,8.91195,-1.48905,1781186187607
2076716040,3,3.8590503,8.707951,-2.016,1781186187618
2076716050,3,3.9259503,8.57205,-2.5810502,1781186187628
2076716060,3,4.03095,8.67,-2.9569502,1781186187638
2076716071,3,3.8370001,9.1390505,-3.1030502,1781186187648
2076716081,3,3.6120002,9.74295,-2.7180002,1781186187658
2076716091,3,3.4380002,10.07505,-2.33205,1781186187668
2076716101,3,3.4140003,10.19295,-2.3080502,1781186187678
2076716111,3,3.4690502,10.18305,-2.7940502,1781186187688
2076716121,3,3.7920003,9.89805,-3.2899501,1781186187698
2076716131,3,4.0740004,9.45495,-3.5410502,1781186187708
2076716141,3,4.065,9.24705,-3.3949502,1781186187718
2076716151,3,3.9090002,9.229951,-2.5860002,1781186187728
2076716161,3,3.65805,9.39795,-1.5010501,1781186187739
2076716171,3,3.3060002,9.594001,-0.63705003,1781186187749
2076716181,3,3.0310502,9.597,0.078,1781186187758
2076716191,3,2.8870502,9.73095,0.70005006,1781186187771
2076716201,3,2.6239502,9.996,0.77505004,1781186187779
2076716212,3,2.4390001,9.86205,0.53295004,1781186187789
2076716222,3,2.331,9.30195,0.043950003,1781186187799
2076716232,3,2.15205,8.398951,-0.61095005,1781186187809
2076716242,3,2.0350502,7.0800004,-1.5130501,1781186187819
2076716252,3,1.9480501,6.0220504,-2.15505,1781186187829
2076716262,3,1.67505,5.9929504,-1.71405,1781186187841
2076716272,3,1.06305,6.4939504,-1.21605,1781186187850
2076716282,3,0.21300001,7.3819504,-0.381,1781186187859
2076716292,3,-0.38700002,8.41605,0.0010500001,1781186187871
2076716302,3,-0.684,9.43605,-0.00705,1781186187882
2076716312,3,-0.55995005,9.826051,-0.58695,1781186187891
2076716322,3,-0.069000006,9.754951,-1.79295,1781186187901
2076716332,3,0.126,9.678,-3.2370002,1781186187911
2076716343,3,0.23700002,9.42195,-4.3099504,1781186187921
2076716353,3,0.67005,9.204,-4.67595,1781186187930
2076716363,3,1.0170001,8.86905,-4.6140003,1781186187941
2076716373,3,1.12695,9.160951,-3.8260503,1781186187950
2076716383,3,0.87795,10.11795,-2.5740001,1781186187960
2076716393,3,0.82305,11.245951,-1.5799501,1781186187970
2076716403,3,0.933,11.967001,-0.94305,1781186187980
2076716413,3,1.005,12.240001,-1.03695,1781186187990
2076716423,3,1.40295,11.838,-1.6519501,1781186188000
2076716433,3,1.9530001,11.481001,-1.9249501,1781186188010
2076716443,3,2.35095,11.48805,-1.968,1781186188021
2076716453,3,2.3749502,11.713051,-1.9009501,1781186188030
2076716463,3,2.04405,12.697051,-1.8010501,1781186188040
2076716474,3,1.6830001,14.217001,-1.6500001,1781186188052
2076716484,3,1.2709501,15.976951,-1.9200001,1781186188062
2076716494,3,0.94500005,16.924952,-2.4019501,1781186188071
2076716504,3,0.86895007,17.032951,-3.1030502,1781186188080
2076716514,3,1.0189501,16.213951,-3.759,1781186188091
2076716524,3,1.07895,15.331051,-4.12995,1781186188101
2076716534,3,1.02405,14.65305,-4.314,1781186188110
2076716544,3,1.0669501,13.863001,-4.446,1781186188122
2076716554,3,1.01205,13.171051,-4.34805,1781186188132
2076716564,3,0.90000004,12.57495,-4.31895,1781186188141
2076716574,3,0.768,12.118051,-4.2979503,1781186188151
2076716584,3,0.74205005,11.60505,-4.1610003,1781186188160
2076716594,3,0.93600005,10.960951,-3.8880002,1781186188171
2076716604,3,1.065,10.34805,-3.52905,1781186188181
2076716615,3,1.1580001,9.711,-3.2280002,1781186188191
2076716625,3,1.2900001,8.998051,-2.8609502,1781186188202
2076716635,3,1.3620001,8.2890005,-2.42505,1781186188213
2076716645,3,1.3950001,7.5690002,-2.1450002,1781186188222
2076716655,3,1.4170501,6.6900005,-1.91295,1781186188232
2076716665,3,1.386,5.79195,-1.76505,1781186188242
2076716675,3,1.2610501,4.971,-1.6159501,1781186188252
2076716685,3,1.12695,4.38705,-1.4130001,1781186188264
2076716695,3,0.76605004,4.0350003,-1.14195,1781186188273
2076716705,3,0.33495003,3.96495,-0.69900006,1781186188283
2076716715,3,0.00705,3.9850502,-0.16095,1781186188292
2076716725,3,-0.33,4.1070004,0.28395,1781186188302
2076716735,3,-0.61005,4.27395,0.50205004,1781186188313
2076716746,3,-0.85695004,4.58505,0.61395,1781186188323
2076716756,3,-0.90705,4.9690504,0.54705,1781186188333
2076716766,3,-0.89295006,5.4619503,0.15705001,1781186188343
2076716776,3,-0.88305,6.2089505,-0.21300001,1781186188353
2076716786,3,-0.61005,6.72795,-0.58395004,1781186188363
2076716796,3,-0.22005,7.12305,-0.59595,1781186188373
2076716806,3,-0.16905001,7.7430005,-0.45495003,1781186188384
2076716816,3,-0.28005,8.32005,-0.34500003,1781186188393
2076716826,3,-0.48105,9.09405,0.11595,1781186188404
2076716836,3,-0.84705,10.135051,0.73605,1781186188414
2076716846,3,-1.06305,11.031,1.0570501,1781186188424
2076716856,3,-0.84000003,11.577001,1.131,1781186188434
2076716866,3,-0.555,12.036,1.1410501,1781186188444
2076716877,3,-0.42600003,12.486001,1.0500001,1781186188454
2076716887,3,-0.076050006,12.42405,-0.71805006,1781186188464
2076716897,3,0.49305,11.63895,-1.17795,1781186188474
2076716907,3,0.81105006,10.85595,-1.79805,1781186188484
2076716917,3,0.97200006,10.18095,-2.634,1781186188494
2076716927,3,0.984,9.477,-3.3040502,1781186188504
2076716937,3,0.80595005,9.37605,-3.4450502,1781186188514
2076716947,3,0.75405,9.319051,-3.3330002,1781186188524
2076716957,3,0.89295006,9.007951,-3.04605,1781186188534
2076716967,3,0.96900004,8.835,-2.8609502,1781186188544
2076716977,3,0.94305,8.983951,-2.63895,1781186188555
2076716987,3,0.87795,9.594001,-2.67195,1781186188565
2076716997,3,0.91605,10.07505,-2.9520001,1781186188575
2076717008,3,1.113,9.90795,-3.3090003,1781186188585
2076717018,3,1.35,9.26595,-3.5839503,1781186188595
2076717028,3,1.47195,8.524051,-3.34695,1781186188605
2076717038,3,1.2760501,8.361,-2.39205,1781186188615
2076717048,3,0.99300003,8.533951,-1.11105,1781186188625
2076717058,3,0.90495,8.74905,0.44895002,1781186188635
2076717068,3,0.85200006,8.941051,1.3729501,1781186188645
2076717078,3,0.60495,9.325951,1.8019501,1781186188655
2076717088,3,0.56205004,9.280951,1.6990501,1781186188665
2076717098,3,0.72300005,8.845051,0.98295003,1781186188676
2076717108,3,0.66495,8.541,0.18300001,1781186188685
2076717118,3,0.49005002,8.60295,-0.273,1781186188696
2076717128,3,0.246,8.941051,-0.37095,1781186188706
2076717138,3,0.094950005,9.26595,-0.381,1781186188715
2076717149,3,0.031050002,9.561001,-0.23505001,1781186188726
2076717159,3,0.00405,9.87705,-0.17295001,1781186188736
2076717169,3,-0.105000004,10.152,-0.24900001,1781186188746
2076717179,3,-0.21705002,10.135051,-0.53595,1781186188756
2076717189,3,-0.36795002,10.012951,-0.702,1781186188766
2076717199,3,-0.86595005,10.03905,-0.97005004,1781186188776
2076717209,3,-1.4290501,10.111051,-1.1880001,1781186188786
2076717219,3,-1.7760001,10.408051,-0.85005003,1781186188797
2076717229,3,-1.8210001,10.5400505,-0.47400004,1781186188806
2076717239,3,-1.5840001,10.569,-0.25605002,1781186188816
2076717249,3,-1.52205,10.81995,-0.36195,1781186188827
2076717259,3,-1.5990001,11.188951,-0.71595,1781186188837
2076717269,3,-1.2280501,10.968,-1.06305,1781186188846
2076717280,3,-0.94305,10.456051,-1.4460001,1781186188857
2076717290,3,-1.161,10.2619505,-1.5949501,1781186188866
2076717300,3,-1.6609501,10.743001,-1.55595,1781186188878
2076717310,3,-1.28505,10.627951,-1.2019501,1781186188887
2076717320,3,-0.294,10.36695,-0.9889501,1781186188898
2076717330,3,0.30600002,10.48995,-1.11105,1781186188907
2076717340,3,0.75795,10.485001,-0.79695004,1781186188917
2076717350,3,1.07505,10.39605,-0.201,1781186188928
2076717360,3,0.97395,10.554001,0.35595003,1781186188944
2076717370,3,0.76095,10.593,0.72705,1781186188947
2076717380,3,0.57195,10.743001,0.71205,1781186188957
2076717390,3,0.52905005,10.593,0.55695003,1781186188967
2076717400,3,0.35595003,10.498951,0.693,1781186188978
2076717411,3,0.28005,10.267051,0.78195006,1781186188988
2076717421,3,0.16005,10.03695,0.86805004,1781186188998
2076717431,3,-0.058950003,9.805051,0.80595005,1781186189008
2076717441,3,-0.31605002,9.72795,0.49005002,1781186189018
2076717451,3,-0.52395004,9.73305,0.24495001,1781186189029
2076717461,3,-0.675,10.04895,0.23595001,1781186189039
2076717471,3,-0.83505005,12.829051,1.2220501,1781186189048
2076717481,3,-0.31995,14.9740505,1.332,1781186189058
2076717491,3,-0.45405003,15.991051,-1.04595,1781186189068
2076717501,3,-0.68700004,15.076951,-3.7420502,1781186189079
2076717511,3,-0.282,11.623951,-3.3040502,1781186189089
2076717521,3,-0.588,10.992001,-2.29605,1781186189100
2076717531,3,-1.3930501,13.20705,-6.6340504,1781186189108
2076717541,3,-0.23205002,8.76105,-1.3770001,1781186189119
2076717552,3,-0.00405,9.360001,-0.53205,1781186189129
2076717562,3,-0.62205005,10.47,-1.9369501,1781186189139
2076717572,3,-0.95205003,10.36695,-2.56695,1781186189150
2076717582,3,-1.28295,10.36305,-2.9160001,1781186189159
2076717592,3,-1.18005,9.56295,-2.4160502,1781186189170
2076717602,3,-0.75105006,8.674951,-2.394,1781186189179
2076717612,3,0.43500003,8.72295,-3.321,1781186189189
2076717622,3,-0.009000001,23.157001,-3.2970002,1781186189200
2076717632,3,0.90900004,29.695951,-1.57305,1781186189211
2076717642,3,4.05495,10.19295,-1.659,1781186189221
2076717652,3,4.29195,-0.04605,-1.5490501,1781186189229
2076717662,3,2.32695,1.9060501,-2.43,1781186189241
2076717672,3,0.47100002,9.451051,-2.76495,1781186189250
2076717683,3,-0.13395001,14.0449505,-1.7479501,1781186189261
2076717693,3,-0.20295002,11.58405,-2.9929502,1781186189271
2076717703,3,-0.052050002,9.03405,-2.265,1781186189279
2076717713,3,-0.40905002,8.778001,-2.9640002,1781186189289
2076717723,3,-0.73005,9.187051,-3.0979502,1781186189300
2076717733,3,-0.46905002,6.1729503,-4.37895,1781186189310
2076717743,3,-0.73200005,5.11905,-3.0889502,1781186189320
2076717753,3,-1.8550501,8.731951,-2.47305,1781186189330
2076717763,3,-2.319,10.176001,0.59505004,1781186189340
2076717773,3,-1.8330001,9.618,0.67395,1781186189352
2076717783,3,-1.16295,8.854051,2.9680502,1781186189360
2076717793,3,-0.363,9.73305,5.16795,1781186189370
2076717803,3,2.8579502,16.906052,-0.18,1781186189380
2076717814,3,5.3820004,21.25605,-4.2709503,1781186189390
2076717824,3,3.31995,12.525001,-2.7180002,1781186189400
2076717834,3,1.13205,6.0649505,-1.353,1781186189411
2076717844,3,0.18105,5.56995,0.24300002,1781186189420
2076717854,3,-0.16005,7.65495,1.0380001,1781186189432
2076717864,3,0.04695,10.04895,1.03995,1781186189440
2076717874,3,0.57195,11.703001,0.41295,1781186189450
2076717884,3,0.68205005,11.6650505,0.066,1781186189460
2076717894,3,0.351,10.627951,-0.34695002,1781186189472
2076717904,3,0.33900002,9.34305,-0.73005,1781186189481
2076717914,3,0.36795002,9.163051,-1.2280501,1781186189492
2076717924,3,0.45000002,9.621,-1.5780001,1781186189502
2076717934,3,0.58095,9.769051,-1.72395,1781186189511
2076717944,3,0.60495,10.01805,-1.8720001,1781186189520
2076717955,3,0.48600003,10.269,-2.028,1781186189532
2076717965,3,0.354,10.03905,-2.3370001,1781186189540
2076717975,3,0.26805001,9.622951,-2.67405,1781186189553
2076717985,3,0.24900001,9.534,-2.9860501,1781186189563
2076717995,3,0.31800002,9.72105,-3.0979502,1781186189572
2076718005,3,0.39705002,10.05105,-2.91405,1781186189582
2076718015,3,0.39900002,10.2289505,-2.598,1781186189591
2076718025,3,0.22005,10.156951,-1.8030001,1781186189602
2076718035,3,-0.11895001,10.071,-0.75405,1781186189613
2076718045,3,-1.6710001,10.557,3.801,1781186189623
2076718055,3,-1.6870501,10.35795,2.7139502,1781186189633
2076718065,3,0.043050002,10.377001,-2.2339501,1781186189643
2076718075,3,0.73005,10.684051,-3.18405,1781186189653
2076718086,3,0.624,10.329,-2.05005,1781186189663
2076718096,3,0.33705002,9.7879505,-2.832,1781186189673
2076718106,3,0.058950003,9.604051,-2.9899502,1781186189683
2076718116,3,-0.09,9.69705,-2.5879502,1781186189694
2076718126,3,0.27195,9.573001,-2.00895,1781186189704
2076718136,3,0.60795003,9.56295,-1.55595,1781186189713
2076718146,3,0.70605004,9.678,-1.7670001,1781186189724
2076718156,3,0.86100006,9.453,-1.8409501,1781186189732
2076718166,3,0.933,9.25695,-1.659,1781186189744
2076718176,3,0.99105006,8.988001,-1.4269501,1781186189754
2076718186,3,1.0819501,8.890051,-1.5300001,1781186189763
2076718196,3,1.041,9.340051,-1.57095,1781186189774
2076718206,3,0.75405,9.958051,-1.4610001,1781186189783
2076718217,3,0.22695,9.57495,-1.746,1781186189795
2076718227,3,-0.27705002,9.394951,-1.76505,1781186189805
2076718237,3,-0.49005002,9.87195,-1.8750001,1781186189814
2076718247,3,-0.65805006,10.141951,-1.84395,1781186189825
2076718257,3,-0.76095,10.425,-1.7479501,1781186189835
2076718267,3,-1.02405,10.72395,-2.2080002,1781186189846
2076718277,3,-1.43805,10.875001,-2.7199502,1781186189857
2076718287,3,-1.7809501,10.939951,-2.83995,1781186189865
2076718297,3,-1.812,10.743001,-2.5570502,1781186189875
2076718307,3,-1.5769501,10.482,-1.7380501,1781186189886
2076718317,3,-1.23,10.33395,-1.5990001,1781186189896
2076718327,3,-1.0189501,10.102051,-1.65495,1781186189906
2076718337,3,-0.90000004,10.092,-1.37205,1781186189915
2076718348,3,-0.76305,10.387051,-1.37205,1781186189925
2076718358,3,-0.684,10.36305,-1.5370501,1781186189936
2076718368,3,-0.56505,9.89595,-1.53495,1781186189945
2076718378,3,-0.40905002,9.762,-1.5280501,1781186189955
2076718388,3,-0.363,9.786,-1.60695,1781186189965
2076718398,3,-0.21705002,9.71895,-1.48905,1781186189976
2076718408,3,-0.033,9.805051,-1.45095,1781186189985
2076718418,3,0.031050002,9.778951,-1.5970501,1781186189994
2076718428,3,-0.07095,9.691951,-1.5990001,1781186190006
2076718438,3,-0.21300001,9.71595,-1.42005,1781186190015
2076718448,3,-0.38505003,9.91005,-1.2280501,1781186190030
2076718458,3,-0.73200005,10.17105,-0.95100003,1781186190038
2076718468,3,-1.2349501,10.39395,-0.28005,1781186190047
2076718478,3,-1.8049501,10.66005,0.49395,1781186190056
2076718489,3,-1.9440001,10.578,-0.08595,1781186190066
2076718499,3,-1.51005,10.07505,-0.94305,1781186190077
2076718509,3,-0.73005,9.843,-2.05905,1781186190086
2076718519,3,-0.31305,9.937051,-1.4770501,1781186190096
2076718529,3,0.07395,9.814051,-1.4970001,1781186190107
2076718539,3,0.33,9.46695,-1.9750501,1781186190116
2076718549,3,0.28005,9.55605,-1.8940501,1781186190127
2076718559,3,0.105000004,9.738001,-1.9350001,1781186190136
2076718569,3,-0.177,9.85995,-1.9780501,1781186190148
2076718579,3,-0.42105,9.847951,-2.148,1781186190158
2076718589,3,-0.56205004,9.943951,-2.18595,1781186190167
2076718599,3,-0.67005,10.023001,-2.08095,1781186190177
2076718609,3,-0.648,10.02795,-2.112,1781186190187
2076718620,3,-0.63600004,9.967951,-1.5970501,1781186190196
2076718630,3,-0.67200005,9.85995,-1.8010501,1781186190207
2076718640,3,-0.72,10.000951,-1.28805,1781186190217
2076718650,3,-0.72495,10.23795,-1.3290001,1781186190227
2076718660,3,-0.68700004,9.939,-1.3909501,1781186190237
2076718670,3,-0.74205005,9.94095,-1.365,1781186190247
2076718680,3,-0.78000003,10.07505,-1.3770001,1781186190257
2076718690,3,-0.76305,10.05405,-1.437,1781186190267
2076718700,3,-0.70095,9.96,-1.5010501,1781186190277
2076718710,3,-0.64395005,9.999001,-1.45095,1781186190287
2076718720,3,-0.57900006,10.01805,-1.4629501,1781186190297
2076718730,3,-0.51705,9.964951,-1.437,1781186190307
2076718740,3,-0.44205,9.87705,-1.4940001,1781186190318
2076718751,3,-0.38700002,9.834001,-1.6110001,1781186190328
2076718761,3,-0.354,9.7879505,-1.7569501,1781186190338
2076718771,3,-0.51705,9.949051,-2.028,1781186190349
2076718781,3,-0.56205004,9.955951,-1.9350001,1781186190357
2076718791,3,-0.54300004,9.835951,-1.9369501,1781186190368
2076718801,3,-0.52095,9.90795,-1.899,1781186190378
2076718811,3,-0.50895,9.972,-1.8840001,1781186190388
2076718821,3,-0.45900002,9.946051,-1.8649501,1781186190402
2076718831,3,-0.49995002,9.937051,-2.02305,1781186190408
2076718841,3,-0.60495,9.972,-2.361,1781186190418
2076718851,3,-0.76305,9.955951,-2.6430001,1781186190428
2076718861,3,-0.87105006,10.035001,-3.1030502,1781186190438
2076718871,3,-0.88095003,10.068001,-3.627,1781186190449
2076718881,3,-0.73905003,10.023001,-3.5650501,1781186190458
2076718892,3,-0.54495,9.838051,-3.3930001,1781186190469
2076718902,3,-0.32700002,9.867001,-3.1200001,1781186190479
2076718912,3,-0.19095,9.835951,-3.0580502,1781186190489
2076718922,3,-0.025950002,9.807,-2.7199502,1781186190499
2076718932,3,-0.034950003,9.73305,-2.9310002,1781186190509
2076718942,3,-0.069000006,9.74505,-2.67405,1781186190519
2076718952,3,-0.081,9.496051,-1.008,1781186190529
2076718962,3,-0.71805006,9.71895,5.92005,1781186190540
2076718972,3,-3.1909502,9.585,16.275002,1781186190549
2076718982,3,-1.2280501,11.413951,-4.2400503,1781186190560
2076718992,3,0.768,11.61495,-8.746051,1781186190570
2076719002,3,0.873,9.405001,-2.4180002,1781186190581
2076719012,3,-0.16905001,8.775001,-0.04095,1781186190590
2076719023,3,-0.75795,9.457951,-1.4650501,1781186190600
2076719033,3,-0.675,10.581,-2.0710502,1781186190610
2076719043,3,-0.55005,10.356001,-1.0320001,1781186190620
2076719053,3,-0.52095,9.982051,-0.78105,1781186190630
2076719063,3,-0.54495,9.72105,-0.201,1781186190640
2076719073,3,-0.35595003,9.570001,0.087000005,1781186190651
2076719083,3,0.10695001,9.766951,0.12795001,1781186190660
2076719093,3,0.56505,9.86205,0.03195,1781186190671
2076719103,3,0.77505004,9.57705,-0.064950004,1781186190680
2076719113,3,0.82095003,9.27795,-0.38295,1781186190691
2076719123,3,0.80205005,9.24495,-0.82905006,1781186190701
2076719133,3,0.61005,9.505951,-1.30005,1781186190712
2076719143,3,0.15300001,9.94095,-1.9039501,1781186190721
2076719154,3,-0.201,9.847951,-2.18805,1781186190730
2076719164,3,-0.33495003,9.67605,-2.1739502,1781186190741
2076719174,3,-0.31995,9.91005,-2.25105,1781186190750
2076719184,3,-0.31995,10.0990505,-2.59995,1781186190761
2076719194,3,-0.31995,9.867001,-2.4019501,1781186190771
2076719204,3,-0.33,9.673051,-2.12895,1781186190780
2076719214,3,-0.48795003,9.86205,-2.562,1781186190792
2076719224,3,-1.16505,10.474951,-2.9980502,1781186190800
2076719234,3,-1.71105,10.52295,-2.94495,1781186190810
2076719244,3,-1.98705,10.273951,-2.59095,1781186190821
2076719254,3,-1.968,10.153951,-2.4400501,1781186190832
2076719264,3,-1.8889501,10.51395,-2.31795,1781186190840
2076719274,3,-1.6680001,10.518001,-2.0350502,1781186190850
2076719284,3,-1.26405,10.11795,-1.8409501,1781186190864
2076719295,3,-0.85200006,10.04895,-1.5130501,1781186190871
2076719305,3,-0.60495,10.071,-1.4650501,1781186190883
2076719315,3,-0.42795002,9.996,-1.4820001,1781186190892
2076719325,3,-0.19800001,9.85305,-1.5679501,1781186190903
2076719335,3,-0.19800001,9.85305,-1.48905,1781186190912
2076719345,3,-0.126,9.628051,-1.401,1781186190922
2076719355,3,0.07395,9.501,-1.4820001,1781186190932
2076719365,3,0.25800002,9.634951,-1.6159501,1781186190942
2076719375,3,0.28905,9.61095,-1.8510001,1781186190953
2076719385,3,0.31605002,9.39795,-2.0740502,1781186190962
2076719395,3,0.39900002,9.34305,-2.148,1781186190973
2076719405,3,0.34395,9.469951,-2.2099502,1781186190983
2076719415,3,0.165,9.57705,-2.3850002,1781186190993
2076719426,3,-0.12195001,9.640051,-2.538,1781186191003
2076719436,3,-0.48600003,9.7570505,-2.9860501,1781186191013
2076719446,3,-0.873,10.212001,-3.1339502,1781186191025
2076719456,3,-1.09095,10.14,-3.3090003,1781186191033
2076719466,3,-1.26795,10.078051,-2.94495,1781186191044
2076719476,3,-1.4100001,10.17105,-2.8950002,1781186191054
2076719486,3,-1.3620001,10.37895,-2.5120502,1781186191063
2076719496,3,-0.96000004,9.939,-2.00895,1781186191073
2076719506,3,-0.61200005,9.73305,-2.0640001,1781186191084
2076719516,3,-0.29595003,9.858001,-2.3419502,1781186191094
2076719526,3,0.025950002,9.759001,-2.5399501,1781186191104
2076719536,3,0.13800001,9.642,-2.0299501,1781186191114
2076719546,3,0.31305,9.321,-1.9540501,1781186191125
2076719557,3,0.708,9.21105,-1.6500001,1781186191134
2076719567,3,0.72,9.46695,-2.5810502,1781186191145
2076719577,3,0.27195,9.493951,-3.49095,1781186191155
2076719587,3,0.31995,9.328051,-2.91105,1781186191164
2076719597,3,0.112050004,9.570001,-2.9020503,1781186191175
2076719607,3,-0.28395,9.81,-2.67405,1781186191185
2076719617,3,-0.75105006,9.951,-2.43705,1781186191194
2076719627,3,-0.88095003,10.068001,-3.3330002,1781186191206
2076719637,3,-0.95205003,10.08705,-3.1750503,1781186191215
2076719647,3,-1.0390501,10.23795,-3.18405,1781186191226
2076719657,3,-1.0669501,10.19295,-3.1290002,1781186191235
2076719667,3,-0.97605,9.678,-2.3460002,1781186191245
2076719677,3,-0.933,9.678,-2.3389502,1781186191256
2076719688,3,-0.94500005,9.964951,-1.743,1781186191265
2076719698,3,-0.88305,10.128,-1.4820001,1781186191275
2076719708,3,-0.79005,10.02,-1.25205,1781186191285
2076719718,3,-0.63405,9.661051,-1.4059501,1781186191296
2076719728,3,-0.42600003,9.661051,-1.81305,1781186191305
2076719738,3,-0.29205,9.976951,-2.04195,1781186191316
2076719748,3,-0.39495003,10.108951,-2.19105,1781186191325
2076719758,3,-0.58395004,10.01595,-1.8769501,1781186191336
2076719768,3,-0.92595005,9.901051,-1.7260501,1781186191346
2076719778,3,-1.2610501,9.964951,-0.77805007,1781186191357
2076719788,3,-1.47405,10.15005,-0.462,1781186191366
2076719798,3,-1.5150001,10.176001,-0.58695,1781186191376
2076719808,3,-1.4959501,10.044001,-0.08895,1781186191386
2076719818,3,-1.4980501,10.107,0.37005,1781186191396
2076719829,3,-1.4239501,10.300051,-0.049950004,1781186191406
2076719839,3,-1.3090501,10.37895,-0.27495003,1781186191416
2076719849,3,-1.0170001,10.257001,0.00795,1781186191427
2076719859,3,-0.75405,10.02795,0.16905001,1781186191437
2076719869,3,-0.37995002,9.90495,0.21405001,1781186191448
2076719879,3,-0.16695,9.8890505,0.47805002,1781186191457
2076719889,3,-0.13095,9.903001,0.72,1781186191468
2076719899,3,-0.28905,9.868951,0.48000002,1781186191477
2076719909,3,-0.51705,10.05405,0.22905001,1781186191486
2076719919,3,-0.54795,10.284,0.32205,1781186191498
2076719929,3,-0.34395,10.06095,0.102000006,1781186191506
2076719939,3,-0.18405001,9.82905,-0.37605003,1781186191519
2076719949,3,-0.10695001,9.843,-0.60105,1781186191528
2076719960,3,0.045,9.879001,-0.90000004,1781186191537
2076719970,3,0.10005,9.666,-1.08,1781186191547
2076719980,3,0.22005,9.637051,-1.248,1781186191557
2076719990,3,0.29205,9.68505,-1.7119501,1781186191568
2076720000,3,0.28905,9.68295,-2.3730001,1781186191578
2076720010,3,0.21300001,9.69705,-3.18195,1781186191588
2076720020,3,0.12900001,9.879001,-3.58695,1781186191599
2076720030,3,-0.24795002,10.18605,-3.084,1781186191607
2076720040,3,-0.57405,10.04205,-1.8360001,1781186191618
2076720050,3,-0.71805006,9.70905,-0.78105,1781186191628
2076720060,3,-0.84900004,10.08495,-0.30405003,1781186191638
2076720070,3,-0.96000004,10.365001,-0.060000002,1781186191650
2076720080,3,-0.77505004,10.044001,0.030000001,1781186191658
2076720091,3,-0.69405,9.858001,-0.034050003,1781186191669
2076720101,3,-0.684,10.02495,-0.105000004,1781186191679
2076720111,3,-0.76605004,10.189951,-0.028950002,1781186191688
2076720121,3,-0.79395,10.152,-0.003,1781186191700
2076720131,3,-0.85395,10.07295,-0.03795,1781186191708
2076720141,3,-0.97905004,10.0990505,-0.025950002,1781186191721
2076720151,3,-1.08405,10.095,-0.165,1781186191731
2076720161,3,-1.23195,10.14,-0.453,1781186191739
2076720171,3,-1.5960001,10.240951,-0.66795003,1781186191750
2076720181,3,-1.8360001,10.288051,-0.73995006,1781186191758
2076720191,3,-1.8769501,10.300051,-0.60795003,1781186191769
2076720201,3,-1.695,10.17105,-0.582,1781186191780
2076720211,3,-1.31595,10.08495,-0.69405,1781186191788
2076720221,3,-0.85695004,10.078051,-0.91005003,1781186191799
2076720232,3,-0.51900005,9.982051,-1.06095,1781186191809
2076720242,3,-0.21300001,9.702001,-1.07505,1781186191819
2076720252,3,-0.021000002,9.46695,-0.97905004,1781186191832
2076720262,3,-0.00405,9.51795,-1.1710501,1781186191841
2076720272,3,0.0139500005,9.56505,-1.6279501,1781186191851
2076720282,3,-0.094950005,9.618,-2.667,1781186191861
2076720292,3,-0.31095,9.690001,-2.7199502,1781186191870
2076720302,3,-0.69600004,9.879001,-2.9350502,1781186191880
2076720312,3,-1.00695,9.91005,-3.7210503,1781186191890
2076720322,3,-1.1530501,9.838051,-3.79695,1781186191900
2076720332,3,-1.24905,9.847951,-4.065,1781186191910
2076720342,3,-1.338,10.08705,-4.08195,1781186191920
2076720352,3,-1.2349501,10.39095,-4.5280504,1781186191931
2076720363,3,-0.64605004,10.34805,-4.5370502,1781186191942
2076720373,3,0.049950004,9.703951,-4.6639504,1781186191951
2076720383,3,0.37800002,9.187051,-4.0750504,1781186191961
2076720393,3,0.615,8.90505,-3.5629501,1781186191971
2076720403,3,0.62700003,8.953051,-3.1720502,1781186191982
2076720413,3,0.74700004,9.261001,-3.8190002,1781186191990
2076720423,3,0.80595005,9.28995,-4.578,1781186192001
2076720433,3,0.37800002,8.715,-4.8120003,1781186192011
2076720443,3,0.21495001,8.12205,-4.9680004,1781186192021
2076720453,3,0.25095,7.9830003,-4.6810503,1781186192031
2076720463,3,0.010950001,8.538,-4.10895,1781186192041
2076720473,3,-0.52395004,9.036,-3.7879503,1781186192050
2076720483,3,-1.28505,10.035001,-3.8689501,1781186192063
2076720494,3,-2.39805,11.89305,-4.6189504,1781186192071
2076720504,3,-3.3229501,14.502001,-5.2720504,1781186192081
2076720514,3,-3.4999502,16.84095,-4.80795,1781186192090
2076720524,3,-4.7640004,16.02495,-2.8489501,1781186192101
2076720534,3,-5.9659505,16.296001,-3.1390502,1781186192111
2076720544,3,-6.663,19.578001,-0.98700005,1781186192122
2076720554,3,-6.2440505,19.91595,0.97305006,1781186192131
2076720564,3,-3.9280503,18.38805,0.13995,1781186192143
2076720574,3,-0.555,16.66905,-2.1720002,1781186192151
2076720584,3,2.71005,13.782001,-3.8719501,1781186192162
2076720594,3,5.6790004,11.872951,-4.1059504,1781186192173
2076720604,3,7.5439506,10.774951,-2.38695,1781186192180
2076720614,3,8.596951,9.19005,-1.11105,1781186192190
2076720624,3,8.632951,7.8420005,-1.6140001,1781186192201
2076720635,3,8.391001,6.939,-2.1090002,1781186192212
2076720645,3,6.62895,7.65495,-1.6900501,1781186192221
2076720655,3,4.27995,9.1060505,-1.113,1781186192233
2076720665,3,2.6550002,10.312051,-1.2019501,1781186192243
2076720675,3,1.5769501,11.026051,-1.779,1781186192253
2076720685,3,0.81405,11.113951,-2.0380502,1781186192262
2076720695,3,0.32295,10.930051,-2.25495,1781186192273
2076720705,3,0.13800001,10.6050005,-2.33205,1781186192283
2076720715,3,0.23400001,10.324051,-2.5789502,1781186192293
2076720725,3,0.72300005,10.21905,-2.9860501,1781186192303
2076720735,3,1.26405,9.858001,-3.3040502,1781186192313
2076720745,3,1.503,9.417001,-3.11295,1781186192324
2076720755,3,1.5130501,9.09105,-2.7460501,1781186192334
2076720766,3,1.4790001,8.953051,-2.38995,1781186192344
2076720776,3,1.43805,9.003,-2.16,1781186192353
2076720786,3,1.4980501,8.96205,-2.13105,1781186192363
2076720796,3,1.5490501,8.85,-2.13105,1781186192376
2076720806,3,1.4959501,8.766001,-2.04495,1781186192383
2076720816,3,1.2610501,8.802,-1.8889501,1781186192393
2076720826,3,1.33095,8.347051,-2.3370001,1781186192404
2076720836,3,1.48905,8.031,-2.38695,1781186192413
2076720846,3,1.26405,8.361,-2.65995,1781186192424
2076720856,3,0.71295005,8.59605,-2.5519502,1781186192434
2076720866,3,0.49995002,8.409,-2.42295,1781186192444
2076720876,3,0.69105005,8.380051,-2.7220502,1781186192455
2076720886,3,0.63195,8.422951,-3.0580502,1781186192464
2076720897,3,0.33495003,8.29905,-3.03795,1781186192474
2076720907,3,0.20805001,7.9230003,-2.8879502,1781186192484
2076720917,3,0.28695002,7.6210504,-2.8609502,1781186192494
2076720927,3,0.342,7.5930004,-2.7220502,1781186192505
2076720937,3,0.294,7.5450006,-2.4810002,1781186192514
2076720947,3,0.126,7.5379505,-2.3820002,1781186192525
2076720957,3,-0.00705,7.68795,-2.1739502,1781186192534
2076720967,3,-0.25800002,8.15295,-2.42295,1781186192547
2076720977,3,-0.56700003,8.14605,-2.63895,1781186192555
2076720987,3,-0.80595005,7.93695,-2.91105,1781186192565
2076720997,3,-0.97905004,7.5379505,-2.84205,1781186192575
2076721007,3,-1.029,7.5420003,-2.631,1781186192585
2076721017,3,-1.1200501,8.200951,-2.46405,1781186192595
2076721028,3,-1.4479501,8.253,-3.07695,1781186192605
2076721038,3,-1.6680001,8.217,-3.69705,1781186192615
2076721048,3,-1.7040001,8.158051,-3.93405,1781186192625
2076721058,3,-1.539,8.1,-3.5340002,1781186192635
2076721068,3,-1.2709501,7.68795,-3.18705,1781186192645
2076721078,3,-0.92805004,7.3080006,-2.9280002,1781186192655
2076721088,3,-0.66,7.2259502,-2.7630002,1781186192666
2076721098,3,-0.59805006,7.6980004,-2.83695,1781186192676
2076721108,3,-0.67905,8.269951,-2.835,1781186192685
2076721118,3,-0.63195,8.59095,-2.8849502,1781186192696
2076721128,3,-0.37305,8.73705,-2.98305,1781186192706
2076721138,3,-0.14805001,9.276,-3.2299502,1781186192716
2076721148,3,-0.117000006,9.868951,-3.3739502,1781186192726
2076721158,3,-0.15495001,9.63,-3.417,1781186192735
2076721169,3,-0.34695002,9.43605,-3.4999502,1781186192746
2076721179,3,-0.61995006,9.57705,-3.8119502,1781186192756
2076721189,3,-0.97395,9.75,-4.14405,1781186192766
2076721199,3,-1.39995,9.987,-4.4560504,1781186192777
2076721209,3,-1.8790501,10.272,-4.8240004,1781186192786
2076721219,3,-2.3170502,10.557,-5.289,1781186192796
2076721229,3,-2.5800002,10.698001,-5.631,1781186192806
2076721239,3,-2.8939502,10.842001,-6.47205,1781186192816
2076721249,3,-3.1570501,11.076,-8.3539505,1781186192826
2076721259,3,-2.8630502,10.85805,-10.59405,1781186192837
2076721269,3,-2.6209502,10.972951,-12.340051,1781186192846
2076721279,3,-3.2029502,10.87695,-12.78495,1781186192858
2076721289,3,-4.2439504,10.771951,-11.587951,1781186192867
2076721300,3,-5.05095,10.663951,-9.62205,1781186192877
2076721310,3,-5.0080504,10.096951,-7.6450505,1781186192886
2076721320,3,-3.9210002,9.08895,-6.79995,1781186192897
2076721330,3,-3.1309502,7.9519506,-5.9500504,1781186192907
2076721340,3,-2.7859502,7.1380506,-4.947,1781186192917
2076721350,3,-2.592,6.477,-4.33605,1781186192928
2076721360,3,-2.4490502,6.1540504,-3.9169502,1781186192939
2076721370,3,-2.47305,6.1200004,-4.04895,1781186192948
2076721380,3,-2.8129501,6.3760505,-4.79295,1781186192957
2076721390,3,-3.1600502,6.8910003,-5.63805,1781186192968
2076721400,3,-3.2989502,7.4010005,-6.1270504,1781186192978
2076721410,3,-3.35595,7.8100505,-6.5790005,1781186192988
2076721420,3,-3.28905,7.9249506,-6.73005,1781186192999
2076721431,3,-3.17895,7.7100005,-6.3850503,1781186193008
2076721441,3,-3.3229501,7.72695,-6.02895,1781186193018
2076721451,3,-3.6510003,8.124001,-6.1770005,1781186193028
2076721461,3,-4.05795,8.778001,-6.5989504,1781186193038
2076721471,3,-4.31895,9.44295,-6.9220505,1781186193048
2076721481,3,-4.5270004,9.903001,-7.2070503,1781186193058
2076721491,3,-4.5079503,10.05405,-7.21605,1781186193068
2076721501,3,-3.9829502,9.711,-6.8550005,1781186193078
2076721511,3,-3.5140502,9.1390505,-6.4500003,1781186193089
2076721521,3,-3.4470003,8.76795,-6.46395,1781186193099
2076721531,3,-3.8689501,8.8279505,-6.6150002,1781186193108
2076721541,3,-4.41195,9.352051,-7.0219502,1781186193120
2076721551,3,-4.6969504,9.63195,-7.4269505,1781186193129
2076721561,3,-4.905,9.673051,-8.02095,1781186193139
2076721572,3,-5.00295,9.58695,-8.064,1781186193149
2076721582,3,-5.07495,9.42405,-7.9729505,1781186193158
2076721592,3,-5.14905,9.12495,-7.8700504,1781186193169
2076721602,3,-5.18505,8.613001,-7.5829506,1781186193179
2076721612,3,-5.181,8.15505,-7.2979503,1781186193190
2076721622,3,-5.1660004,7.9180503,-7.1590505,1781186193200
2076721632,3,-5.2309504,7.7550006,-6.97905,1781186193210
2076721642,3,-5.13,7.52295,-6.7639503,1781186193220
2076721652,3,-4.91505,7.1620502,-6.4450502,1781186193229
2076721662,3,-4.6800003,6.79995,-6.3019505,1781186193240
2076721672,3,-4.5409503,6.43095,-6.1410003,1781186193250
2076721682,3,-4.48395,6.096,-5.8489504,1781186193260
2076721692,3,-4.407,5.6920505,-5.5590005,1781186193270
2076721703,3,-4.29195,5.373,-5.25495,1781186193281
2076721713,3,-4.1730003,5.3560505,-4.932,1781186193290
2076721723,3,-4.3549504,5.289,-4.66905,1781186193301
2076721733,3,-4.51695,5.1220503,-4.4890504,1781186193311
2076721743,3,-4.6540504,4.8580503,-4.65,1781186193320
2076721753,3,-4.7059503,4.2340503,-5.0160003,1781186193330
2076721763,3,-4.8019505,3.4510503,-5.5360503,1781186193340
2076721773,3,-4.776,2.9910002,-5.8660502,1781186193351
2076721783,3,-4.6200004,3.075,-5.8680005,1781186193361
2076721793,3,-4.49805,3.3240001,-5.9760003,1781186193370
2076721803,3,-4.5270004,4.09005,-7.3309503,1781186193381
2076721813,3,-4.83795,5.0740504,-9.618,1781186193391
2076721823,3,-5.4559503,5.6650505,-10.651951,1781186193401
2076721834,3,-5.9749503,5.847,-10.147051,1781186193411
2076721844,3,-6.2839503,5.9359503,-9.25395,1781186193421
2076721854,3,-6.3559504,5.8830004,-8.413051,1781186193431
2076721864,3,-6.2100005,5.7970505,-8.31,1781186193440
2076721874,3,-5.95095,5.328,-8.490001,1781186193451
2076721884,3,-5.9010005,5.0719504,-8.856,1781186193461
2076721894,3,-5.89905,4.90605,-9.144,1781186193470
2076721904,3,-5.9680505,4.914,-9.313951,1781186193482
2076721914,3,-5.9110503,4.7719502,-9.129001,1781186193490
2076721924,3,-5.7769504,4.64505,-8.908951,1781186193500
2076721934,3,-5.51595,4.5880504,-8.68395,1781186193511
2076721944,3,-5.0730004,4.45905,-8.51895,1781186193522
2076721954,3,-4.7470503,4.42005,-8.2890005,1781186193531
2076721965,3,-4.5870004,4.47795,-7.6519504,1781186193541
2076721975,3,-4.467,4.506,-7.6519504,1781186193552
2076721985,3,-4.3230004,4.4370003,-7.5850506,1781186193562
2076721995,3,-4.11795,4.2259502,-7.24695,1781186193572
2076722005,3,-4.005,4.0470004,-6.83295,1781186193582
2076722015,3,-4.0360503,4.059,-6.76905,1781186193592
2076722025,3,-4.26795,4.059,-6.9100504,1781186193602
2076722035,3,-4.52505,4.281,-7.5679502,1781186193612
2076722045,3,-4.5990005,4.17105,-7.8870006,1781186193622
2076722055,3,-4.45305,3.9769502,-7.77405,1781186193632
2076722065,3,-4.3879504,3.9199502,-7.15605,1781186193643
2076722075,3,-4.58895,4.53,-6.8599505,1781186193653
2076722085,3,-4.94595,5.2060504,-6.4069505,1781186193663
2076722095,3,-5.40105,5.565,-5.8180504,1781186193673
2076722106,3,-5.84595,5.7730503,-5.48295,1781186193683
2076722116,3,-6.21495,5.682,-5.2050004,1781186193693
2076722126,3,-6.56895,5.5140004,-4.9110003,1781186193703
2076722136,3,-7.4140506,5.84205,-5.2000504,1781186193714
2076722146,3,-8.99895,6.30705,-4.8840003,1781186193724
2076722156,3,-9.98595,5.4430504,-3.5650501,1781186193733
2076722166,3,-10.534051,4.0230002,-1.56105,1781186193743
2076722176,3,-10.642051,4.52295,-0.66795003,1781186193753
2076722186,3,-12.130951,5.7900004,2.4550502,1781186193763
2076722196,3,-12.852,8.887951,-0.42405003,1781186193774
2076722206,3,-13.515,7.9009504,-1.09905,1781186193783
2076722216,3,-13.6390505,8.835,-2.8590002,1781186193793
2076722226,3,-12.117001,9.441,-4.23495,1781186193803
2076722237,3,-10.321051,8.689051,-3.0220501,1781186193814
2076722247,3,-8.665951,7.9350004,0.23295002,1781186193826
2076722257,3,-7.3620005,8.27295,3.24495,1781186193834
2076722267,3,-6.2200503,9.04605,4.9399505,1781186193844
2076722277,3,-4.8310504,9.71595,4.42605,1781186193855
2076722287,3,-3.8950503,9.811951,2.9580002,1781186193866
2076722297,3,-3.4350002,9.53205,1.7389501,1781186193876
2076722307,3,-3.07095,8.908951,1.2250501,1781186193885
2076722317,3,-2.7,8.42805,0.71205,1781186193895
2076722327,3,-2.35305,8.13405,0.03195,1781186193905
2076722337,3,-2.07795,7.9999504,-0.35895002,1781186193915
2076722347,3,-1.9630501,7.9420505,-0.36405003,1781186193925
2076722357,3,-1.9560001,7.96605,-0.62505,1781186193935
2076722368,3,-2.05395,7.9090505,-1.2930001,1781186193945
2076722378,3,-2.2669501,7.7550006,-1.9630501,1781186193955
2076722388,3,-2.47305,7.7790003,-2.7270002,1781186193966
2076722398,3,-2.5759501,7.7700005,-3.27795,1781186193976
2076722408,3,-2.59695,7.8439503,-3.5700002,1781186193985
2076722418,3,-2.53695,7.8100505,-3.58905,1781186193995
2076722428,3,-2.3170502,7.68795,-3.3349502,1781186194006
2076722438,3,-2.08005,7.6170006,-3.1030502,1781186194015
2076722448,3,-1.9339501,7.5760503,-2.83995,1781186194026
2076722458,3,-1.83105,7.6450505,-2.5549502,1781186194038
2076722468,3,-1.7520001,7.8490505,-2.26005,1781186194047
2076722478,3,-1.6680001,8.364,-2.052,1781186194056
2076722488,3,-1.6279501,9.25695,-2.0400002,1781186194066
2076722498,3,-1.6680001,10.557,-2.016,1781186194076
2076722509,3,-1.695,12.079051,-1.8409501,1781186194086
2076722519,3,-1.5870001,13.305,-1.50405,1781186194096
2076722529,3,-1.302,14.37495,-1.1400001,1781186194106
2076722539,3,-0.92595005,14.971951,-1.0200001,1781186194116
2076722549,3,-0.35895002,15.108001,-1.2589501,1781186194126
2076722559,3,0.177,14.775001,-1.5829501,1781186194136
2076722569,3,0.72705,13.9129505,-2.1070502,1781186194146
2076722579,3,1.79805,12.56505,-3.3709502,1781186194156
2076722589,3,3.01395,11.280001,-4.01805,1781186194166
2076722599,3,4.55595,10.873051,-4.27605,1781186194176
2076722609,3,6.5170503,10.698001,-4.14195,1781186194186
2076722619,3,6.768,10.20195,-3.07695,1781186194196
2076722629,3,5.1730504,9.949051,-1.8360001,1781186194208
2076722640,3,2.7600002,10.141951,-2.15295,1781186194217
2076722650,3,1.55295,10.012951,-3.084,1781186194227
2076722660,3,0.82305,9.654,-3.2950501,1781186194237
2076722670,3,0.294,9.44295,-3.25605,1781186194247
2076722680,3,-0.14805001,9.27105,-3.0360003,1781186194257
2076722690,3,-0.44505003,9.0720005,-2.9950502,1781186194267
2076722700,3,-0.68700004,8.718,-2.289,1781186194277
2076722710,3,-0.79005,8.689051,-1.9630501,1781186194287
2076722720,3,-0.83295006,8.883,-1.9800001,1781186194297
2076722730,3,-0.864,9.337951,-1.779,1781186194307
2076722740,3,-0.744,9.616051,-1.746,1781186194318
2076722750,3,-0.31995,9.642,-1.7740501,1781186194328
2076722760,3,0.049950004,9.793051,-1.9729501,1781186194338
2076722771,3,0.35595003,9.87405,-2.148,1781186194348
2076722781,3,0.6,9.811951,-2.1690001,1781186194357
2076722791,3,0.72,9.58905,-2.1790502,1781186194369
2076722801,3,0.73005,9.427051,-2.02095,1781186194378
2076722811,3,0.52095,9.505951,-1.6980001,1781186194388
2076722821,3,0.24105,9.7570505,-1.6020001,1781186194399
2076722831,3,0.00405,9.891001,-1.7359501,1781186194408
2076722841,3,-0.14805001,9.958051,-1.84395,1781186194419
2076722851,3,-0.21705002,9.89805,-1.9609501,1781186194429
2076722861,3,-0.30795002,9.823951,-1.9540501,1781186194439
2076722871,3,-0.45900002,9.786,-1.8870001,1781186194449
2076722881,3,-0.65505004,9.769051,-1.7910001,1781186194458
2076722891,3,-0.84705,9.805051,-1.7479501,1781186194470
2076722902,3,-1.02195,9.823951,-1.67595,1781186194479
2076722912,3,-1.182,9.823951,-1.7220001,1781186194489
2076722922,3,-1.31595,9.766951,-1.69305,1781186194499
2076722932,3,-1.3980001,9.77595,-1.6860001,1781186194509
2076722942,3,-1.51995,9.867001,-1.5490501,1781186194519
2076722952,3,-1.60395,9.988951,-1.485,1781186194529
2076722962,3,-1.644,10.03695,-1.28805,1781186194539
2076722972,3,-1.6680001,10.22595,-0.984,1781186194549
2076722982,3,-1.67295,10.34595,-0.63900006,1781186194560
2076722992,3,-1.7020501,10.449,-0.63000005,1781186194570
2076723002,3,-1.7689501,10.53495,-0.53595,1781186194580
2076723012,3,-1.7710501,10.564051,-0.546,1781186194590
2076723022,3,-1.6060501,10.37205,-0.48600003,1781186194600
2076723032,3,-1.5870001,10.221001,-0.90300006,1781186194610
2076723043,3,-1.5769501,10.129951,-1.1880001,1781186194620
2076723053,3,-1.5700501,10.212001,-1.7119501,1781186194630
2076723063,3,-1.4430001,10.212001,-1.5490501,1781186194641
2076723073,3,-1.3429501,10.437,-1.63995,1781186194651
2076723083,3,-1.24905,10.444051,-1.6620001,1781186194660
2076723093,3,-1.1509501,10.329,-1.6710001,1781186194671
2076723103,3,-0.94305,10.141951,-1.746,1781186194681
2076723113,3,-0.82095003,10.008,-1.6620001,1781186194690
2076723123,3,-0.85905004,9.972,-1.2589501,1781186194701
2076723133,3,-0.77295005,9.69705,-1.1590501,1781186194711
2076723143,3,-0.684,9.40695,-1.69305,1781186194721
2076723153,3,-0.69900006,9.30195,-1.64295,1781186194730
2076723163,3,-0.80895007,9.642,-1.7740501,1781186194741
2076723174,3,-0.96000004,10.236,-2.1360002,1781186194750
2076723184,3,-0.80895007,10.264951,-1.6020001,1781186194761
2076723194,3,-0.49500003,10.15005,-2.2699502,1781186194770
2076723204,3,-0.20805001,9.87195,-2.06205,1781186194781
2076723214,3,-0.15300001,9.781051,-2.05695,1781186194792
2076723224,3,-0.010950001,9.486,-2.0059502,1781186194801
2076723234,3,0.109950006,9.276,-2.02095,1781186194811
2076723244,3,0.10695001,9.213,-1.9990501,1781186194820
2076723254,3,-0.11400001,9.64395,-2.0710502,1781186194832
2076723264,3,-0.246,10.22595,-2.2440002,1781186194842
2076723274,3,0.0019500001,10.36995,-2.3419502,1781186194853
2076723284,3,0.18405001,10.44705,-2.4090002,1781186194862
2076723294,3,0.21000001,10.64805,-2.46105,1781186194871
2076723305,3,0.16005,11.062051,-2.667,1781186194881
2076723315,3,0.25605002,11.26095,-2.7180002,1781186194891
2076723325,3,0.36105,11.184001,-2.76495,1781186194902
2076723335,3,0.62700003,10.798051,-2.50395,1781186194912
2076723345,3,0.51195,10.762951,-2.2770002,1781186194922
2076723355,3,0.20805001,10.851001,-2.5500002,1781186194934
2076723365,3,-0.055050004,11.052001,-2.7130501,1781186194943
2076723375,3,-0.23400001,10.930051,-2.56005,1781186194953
2076723385,3,-0.32295,10.54905,-2.26305,1781186194962
2076723395,3,-0.75405,10.68105,-2.052,1781186194973
2076723405,3,-1.19895,10.7029505,-2.00895,1781186194983
2076723415,3,-1.67505,10.85805,-2.0740502,1781186194993
2076723425,3,-2.1379502,10.783951,-1.1850001,1781186195003
2076723435,3,-2.6260502,10.798051,-0.22305001,1781186195013
2076723446,3,-3.1260002,10.863001,-0.13395001,1781186195023
2076723456,3,-3.4759502,10.300051,-1.8870001,1781186195033
2076723466,3,-3.7180502,9.56505,-3.5719502,1781186195043
2076723476,3,-3.8779502,9.747001,-2.7799501,1781186195053
2076723486,3,-3.5479503,9.526951,-1.45095,1781186195063
2076723496,3,-2.9299502,9.21105,-1.8100501,1781186195073
2076723506,3,-2.47005,8.74905,-1.76505,1781186195083
2076723516,3,-2.12805,8.46405,-1.125,1781186195094
2076723526,3,-1.8769501,8.277,-1.1400001,1781186195104
2076723536,3,-1.8739501,8.12205,-1.0870501,1781186195113
2076723546,3,-1.9630501,7.866,-0.58905005,1781186195124
2076723556,3,-2.082,8.124001,-0.03795,1781186195134
2076723566,3,-2.1450002,8.63895,0.28905,1781186195144
2076723577,3,-2.0269501,8.656051,0.46605003,1781186195154
2076723587,3,-1.93605,8.589001,0.15195,1781186195164
2076723597,3,-1.9650002,8.92395,-0.22305001,1781186195174
2076723607,3,-2.0680501,9.17805,-0.28500003,1781186195184
2076723617,3,-2.214,9.40005,-0.22500001,1781186195194
2076723627,3,-2.46795,9.679951,-0.32805002,1781186195204
2076723637,3,-2.73405,9.903001,-0.44505003,1781186195215
2076723647,3,-2.94705,10.02495,-0.65595,1781186195226
2076723657,3,-3.1219501,10.26,-0.84795004,1781186195235
2076723667,3,-3.2749503,10.37895,-0.96000004,1781186195245
2076723677,3,-3.3439503,10.2960005,-1.03005,1781186195256
2076723687,3,-3.1690502,10.114051,-1.07805,1781186195265
2076723697,3,-2.8249502,9.493951,-0.91995007,1781186195275
2076723708,3,-2.6119502,9.193951,-0.76605004,1781186195285
2076723718,3,-2.3479502,8.847,-0.615,1781186195295
2076723728,3,-2.049,8.74905,-0.70905006,1781186195307
2076723738,3,-1.8100501,8.658,-1.0009501,1781186195316
2076723748,3,-1.5960001,9.534,-1.53495,1781186195326
2076723758,3,-1.4140501,10.486951,-1.94895,1781186195335
2076723768,3,-0.86895007,10.992001,-3.1600502,1781186195345
2076723778,3,-0.25605002,12.048,-4.3050003,1781186195355
2076723788,3,0.60495,13.486951,-6.438,1781186195365
2076723798,3,1.3549501,15.118051,-7.1800504,1781186195376
2076723808,3,2.42205,15.088951,-7.48395,1781186195386
2076723818,3,4.00995,13.99005,-7.6710005,1781186195396
2076723828,3,5.3700004,13.027051,-6.9649506,1781186195406
2076723838,3,5.8680005,12.0390005,-5.6190004,1781186195416
2076723849,3,5.3959503,10.18095,-3.4140003,1781186195426
2076723859,3,4.644,8.2890005,-1.8940501,1781186195435
2076723869,3,3.7540503,7.1740503,-1.3099501,1781186195447
2076723879,3,2.48895,7.1140504,-0.98700005,1781186195457
2076723889,3,1.2610501,6.97695,-1.0699501,1781186195466
2076723899,3,0.294,6.5869503,-1.14195,1781186195477
2076723909,3,-0.402,6.051,-0.94095004,1781186195487
2076723919,3,-0.90900004,5.34705,-0.49800003,1781186195496
2076723929,3,-1.40205,4.44705,-0.015000001,1781186195507
2076723939,3,-1.9080001,3.9750001,0.43695003,1781186195516
2076723949,3,-2.535,3.93195,0.88500005,1781186195526
2076723959,3,-3.41595,4.30095,2.01,1781186195537
2076723969,3,-4.374,5.991,1.14795,1781186195547
2076723980,3,-5.7580504,7.8130503,0.81795,1781186195556
2076723990,3,-7.0309505,9.61095,0.47295,1781186195566
2076724000,3,-7.7449503,10.518001,-0.031050002,1781186195579
2076724010,3,-8.116051,11.124001,-0.73800004,1781186195587
2076724020,3,-8.49705,11.44995,-1.6500001,1781186195597
2076724030,3,-9.01605,11.365951,-2.1979501,1781186195607
2076724040,3,-9.579,11.125951,-2.73,1781186195618
2076724050,3,-9.61005,10.69095,-2.8519502,1781186195628
2076724060,3,-9.415951,10.269,-3.0930002,1781186195638
2076724070,3,-8.700001,9.51,-2.67705,1781186195648
2076724080,3,-7.287,9.09405,-2.334,1781186195657
2076724090,3,-6.0330005,9.280951,-2.56395,1781186195668
2076724100,3,-5.322,9.360001,-2.8159502,1781186195677
2076724111,3,-4.7779503,9.457951,-3.216,1781186195688
2076724121,3,-4.2709503,9.625051,-3.6109502,1781186195698
2076724131,3,-3.82995,9.69705,-4.2790504,1781186195707
2076724141,3,-3.3820503,9.5130005,-5.0539503,1781186195719
2076724151,3,-2.8290002,9.88605,-5.7390003,1781186195728
2076724161,3,-2.39595,10.971001,-6.0019503,1781186195737
2076724171,3,-1.7899501,11.359051,-5.418,1781186195748
2076724181,3,-0.88095003,11.359051,-5.1859503,1781186195758
2076724191,3,-0.08595,11.172001,-4.176,1781186195769
2076724201,3,0.49800003,10.873051,-3.27795,1781186195779
2076724211,3,0.82995003,10.6050005,-2.9350502,1781186195788
2076724221,3,1.05495,10.300051,-2.8129501,1781186195799
2076724231,3,1.20105,9.846001,-2.6530502,1781186195808
2076724242,3,1.24695,9.345,-2.1049502,1781186195819
2076724252,3,1.2090001,8.96895,-1.45305,1781186195829
2076724262,3,0.96405005,9.051001,-1.33605,1781186195839
2076724272,3,0.45195,9.26895,-1.5870001,1781186195849
2076724282,3,-0.18105,9.714001,-1.7359501,1781186195859
2076724292,3,-0.47100002,9.834001,-2.3130002,1781186195870
2076724302,3,-0.58605003,9.949051,-2.8470001,1781186195880
2076724312,3,-0.933,10.19505,-3.012,1781186195889
2076724322,3,-1.3039501,10.423051,-3.15105,1781186195899
2076724332,3,-1.6110001,10.54695,-3.0960002,1781186195910
2076724342,3,-1.7590501,10.651951,-3.177,1781186195921
2076724352,3,-1.8379501,9.658951,-2.69805,1781186195930
2076724362,3,-1.6849501,9.22305,-1.281,1781186195940
2076724372,3,-1.9699501,9.205951,-0.80700004,1781186195950
2076724383,3,-2.45595,9.73995,-0.42405003,1781186195960
2076724393,3,-3.0499501,10.159051,-0.72795004,1781186195971
2076724403,3,-3.315,10.279051,-0.78495,1781186195980
2076724413,3,-3.45195,10.356001,-0.735,1781186195990
2076724423,3,-3.5860503,10.453951,-1.0200001,1781186196000
2076724433,3,-3.7080002,10.312051,-1.3770001,1781186196010
2076724443,3,-3.7459502,10.02795,-1.7070001,1781186196020
2076724453,3,-3.56205,9.5460005,-1.899,1781186196030
2076724463,3,-3.3730502,9.1060505,-1.83405,1781186196041
2076724473,3,-3.24795,8.98095,-1.60905,1781186196050
2076724483,3,-3.1669502,9.004951,-1.21605,1781186196060
2076724493,3,-3.1650002,9.15795,-0.81705004,1781186196070
2076724503,3,-3.21495,9.337951,-0.57495004,1781186196081
2076724514,3,-3.2410502,9.316051,-0.52905005,1781186196090
2076724524,3,-3.2269502,8.96205,-0.42405003,1781186196101
2076724534,3,-3.1020002,8.908951,-0.42195,1781186196110
2076724544,3,-3.0589502,9.10095,-0.48405004,1781186196121
2076724554,3,-2.913,9.357,-1.0390501,1781186196131
2076724564,3,-2.6950502,9.41895,-1.5319501,1781186196141
2076724574,3,-2.36505,9.361951,-1.6830001,1781186196150
2076724584,3,-2.04405,9.43605,-2.14995,1781186196162
2076724594,3,-1.8019501,9.522,-2.6220002,1781186196171
2076724604,3,-1.503,9.4789505,-3.048,1781186196182
2076724614,3,-1.13205,9.453,-3.5119503,1781186196191
2076724624,3,-0.69600004,9.46695,-4.1010003,1781186196200
2076724634,3,-0.10695001,9.357,-4.683,1781186196211
2076724645,3,0.57405,9.325951,-5.16195,1781186196222
2076724655,3,1.23705,9.357,-5.2270503,1781186196232
2076724665,3,1.8859501,9.261001,-4.8510003,1781186196242
2076724675,3,2.5090501,9.252001,-4.6810503,1781186196252
2076724685,3,3.0979502,9.331051,-4.5199504,1781186196263
2076724695,3,3.6510003,9.526951,-4.293,1781186196272
2076724705,3,4.1389503,9.679951,-3.8449502,1781186196282
2076724715,3,4.5820503,9.673051,-3.3330002,1781186196291
2076724725,3,4.8619504,9.4150505,-2.6839502,1781186196302
2076724735,3,4.9890003,9.051001,-2.16405,1781186196312
2076724745,3,4.94595,8.62905,-1.4629501,1781186196323
2076724755,3,4.3380003,8.500051,-0.92205006,1781186196333
2076724765,3,3.351,8.81595,-0.36600003,1781186196343
2076724775,3,2.5110002,8.988001,-0.049950004,1781186196353
2076724786,3,1.7809501,8.967,-0.031050002,1781186196363
2076724796,3,1.146,9.11505,-0.25905,1781186196373
2076724806,3,0.49800003,9.273001,-0.321,1781186196383
2076724816,3,-0.025950002,9.472051,-0.41700003,1781186196393
2076724826,3,-0.46605003,9.81,-0.91200006,1781186196403
2076724836,3,-0.88500005,10.096951,-1.386,1781186196413
2076724846,3,-1.1770501,10.38405,-2.14995,1781186196423
2076724856,3,-1.30005,10.621051,-2.7889502,1781186196434
2076724866,3,-1.33305,10.717051,-3.3660002,1781186196445
2076724876,3,-1.3879501,11.019,-3.867,1781186196454
2076724886,3,-1.5679501,11.469001,-4.01805,1781186196464
2076724896,3,-1.86195,11.95695,-3.8479502,1781186196474
2076724906,3,-2.181,12.151051,-3.58905,1781186196485
2076724917,3,-2.42505,11.98095,-3.3330002,1781186196494
2076724927,3,-2.5129502,11.707951,-2.8920002,1781186196504
2076724937,3,-2.427,11.325001,-2.2410002,1781186196514
2076724947,3,-2.1420002,10.774951,-1.5949501,1781186196524
2076724957,3,-1.8930001,10.305,-1.161,1781186196534
2076724967,3,-1.66305,9.774,-0.98700005,1781186196544
2076724977,3,-1.5409501,9.40305,-0.78495,1781186196554
2076724987,3,-1.21095,8.93805,-1.02705,1781186196564
2076724997,3,-0.85200006,8.301001,-1.30005,1781186196574
2076725007,3,-0.54300004,7.96605,-1.36695,1781186196584
2076725017,3,-0.21705002,7.75995,-1.56105,1781186196595
2076725027,3,0.12195001,7.7820005,-1.9300501,1781186196605
2076725037,3,0.42600003,8.17395,-2.36805,1781186196615
2076725048,3,0.69105005,8.49495,-2.466,1781186196625
2076725058,3,0.91395,9.012,-2.868,1781186196635
2076725068,3,1.04295,9.735001,-2.9670002,1781186196645
2076725078,3,1.20105,10.465951,-2.9280002,1781186196655
2076725088,3,1.23705,10.930051,-2.56905,1781186196665
2076725098,3,1.098,11.14095,-1.95105,1781186196675
2076725108,3,0.76995003,11.196,-1.2090001,1781186196686
2076725118,3,0.43995002,11.37495,-0.54105,1781186196695
2076725128,3,0.18900001,11.4210005,-0.08400001,1781186196705
2076725138,3,0.0019500001,11.188951,0.22905001,1781186196716
2076725148,3,-0.11400001,10.86495,0.33405003,1781186196725
2076725158,3,-0.25095,10.51605,0.36495003,1781186196736
2076725168,3,-0.411,10.21395,0.15900001,1781186196746
2076725179,3,-0.55695003,9.94095,-0.19905001,1781186196757
2076725189,3,-0.66495,9.75195,-0.615,1781186196768
2076725199,3,-0.735,9.54405,-0.95295006,1781186196777
2076725209,3,-0.768,9.39795,-1.23105,1781186196787
2076725219,3,-0.70605004,9.24195,-1.389,1781186196797
2076725229,3,-0.58605003,9.184951,-1.4749501,1781186196807
2076725239,3,-0.39705002,9.15795,-1.4250001,1781186196816
2076725249,3,-0.20295002,9.20895,-1.3789501,1781186196826
2076725259,3,-0.043050002,9.321,-1.281,1781186196836
2076725269,3,0.112050004,9.45495,-1.19505,1781186196847
2076725279,3,0.22905001,9.606001,-1.15695,1781186196858
2076725289,3,0.34905002,9.771001,-1.125,1781186196867
2076725299,3,0.51900005,9.937051,-1.14495,1781186196878
2076725309,3,0.68700004,10.05105,-1.21605,1781186196888
2076725320,3,0.83505005,10.129951,-1.33395,1781186196897
2076725330,3,0.92595005,10.13805,-1.4800501,1781186196906
2076725340,3,0.96195006,10.11795,-1.57605,1781186196916
2076725350,3,0.96900004,10.080001,-1.6159501,1781186196927
2076725360,3,0.91605,10.03695,-1.6999501,1781186196937
2076725370,3,0.84900004,9.987,-1.8220501,1781186196947
2076725380,3,0.72705,9.915001,-1.8919501,1781186196957
2076725390,3,0.67005,9.880951,-1.8889501,1781186196971
2076725400,3,0.66705,9.880951,-1.8750001,1781186196978
2076725410,3,0.62205005,9.87705,-1.8600001,1781186196988
2076725420,3,0.52395004,9.951,-1.83405,1781186196998
2076725430,3,0.37500003,10.056001,-1.7530501,1781186197007
2076725440,3,0.23700002,10.14,-1.6330501,1781186197018
2076725451,3,0.076050006,10.2310505,-1.5109501,1781186197028
2076725461,3,-0.045,10.297951,-1.4490001,1781186197038
2076725471,3,-0.141,10.320001,-1.4389501,1781186197048
2076725481,3,-0.20805001,10.297951,-1.485,1781186197058
2076725491,3,-0.22200002,10.24995,-1.48695,1781186197068
2076725501,3,-0.12195001,10.16205,-1.4650501,1781186197078
2076725511,3,-0.0019500001,10.120951,-1.4580001,1781186197088
2076725521,3,0.10695001,10.095,-1.386,1781186197098
2076725531,3,0.18105,10.080001,-1.34595,1781186197108
2076725541,3,0.246,10.02795,-1.3270501,1781186197119
2076725551,3,0.294,10.059,-1.30305,1781186197129
2076725561,3,0.30105,10.272,-1.2760501,1781186197139
2076725571,3,0.32505003,10.48005,-1.26405,1781186197149
2076725582,3,0.33705002,10.651951,-1.3770001,1781186197159
2076725592,3,0.39495003,10.786051,-1.434,1781186197169
2076725602,3,0.49305,10.93305,-1.45305,1781186197180
2076725612,3,0.63600004,10.98495,-1.45305,1781186197189
2076725622,3,0.77805007,11.00895,-1.4460001,1781186197199
2076725632,3,0.85395,11.062051,-1.47,1781186197209
2076725642,3,0.93105006,11.107051,-1.4460001,1781186197220
2076725652,3,1.01505,11.076,-1.4580001,1781186197231
2076725662,3,1.07505,10.930051,-1.50405,1781186197240
2076725672,3,1.146,10.774951,-1.45305,1781186197250
2076725682,3,1.194,10.5400505,-1.5490501,1781186197260
2076725692,3,1.26405,10.300051,-1.60695,1781186197270
2076725702,3,1.3810501,10.05405,-1.67805,1781186197280
2076725712,3,1.60395,9.802051,-1.6690501,1781186197290
2076725723,3,1.8529501,9.58905,-1.7530501,1781186197300
2076725733,3,1.98195,9.44295,-1.8889501,1781186197310
2076725743,3,2.14695,9.40305,-2.0400002,1781186197320
2076725753,3,2.38395,9.429001,-2.1790502,1781186197330
2076725763,3,2.5759501,9.501,-2.193,1781186197340
2076725773,3,2.6950502,9.616051,-2.0659502,1781186197350
2076725783,3,2.8609502,9.70695,-1.9110001,1781186197360
2076725793,3,3.05205,9.891001,-1.67595,1781186197371
2076725803,3,3.25305,10.03695,-1.45095,1781186197380
2076725813,3,3.4330502,10.15005,-1.1710501,1781186197391
2076725823,3,3.52605,10.16205,-0.96495,1781186197401
2076725833,3,3.3990002,10.068001,-0.71805006,1781186197411
2076725843,3,3.117,9.8550005,-0.45495003,1781186197421
2076725854,3,2.7840002,9.56505,-0.076950006,1781186197432
2076725864,3,2.4540002,9.205951,0.23595001,1781186197441
2076725874,3,2.18805,8.80395,0.53295004,1781186197450
2076725884,3,2.0029502,8.361,0.69600004,1781186197460
2076725894,3,1.8240001,8.10495,0.90900004,1781186197471
2076725904,3,1.6680001,7.9159503,1.11,1781186197481
2076725914,3,1.63995,7.5520506,1.3590001,1781186197492
2076725924,3,1.6830001,7.3939505,1.4830501,1781186197500
2076725934,3,1.6560001,7.4269505,1.71105,1781186197510
2076725944,3,1.5490501,7.7170506,1.9429501,1781186197522
2076725954,3,1.491,7.8780003,2.25405,1781186197531
2076725964,3,1.5700501,7.8970504,2.59695,1781186197542
2076725974,3,1.6830001,8.091001,2.88105,1781186197551
2076725985,3,1.8499501,8.389951,3.2670002,1781186197560
2076725995,3,1.8220501,8.754001,3.7360501,1781186197572
2076726005,3,1.659,8.887951,3.9559503,1781186197582
2076726015,3,1.5319501,8.883,3.9970503,1781186197592
2076726025,3,1.5700501,8.802,3.729,1781186197602
2076726035,3,1.8220501,8.826,2.7880502,1781186197612
2076726045,3,1.848,9.08895,1.8570001,1781186197622
2076726055,3,1.9720501,9.325951,1.2270001,1781186197632
2076726065,3,2.12595,9.340051,0.76995003,1781186197642
2076726075,3,2.25495,9.44295,0.37500003,1781186197652
2076726085,3,2.29605,9.702001,0.17805001,1781186197663
2076726095,3,2.2360501,10.1980505,-0.0049500004,1781186197673
2076726105,3,2.0680501,10.615951,0.00795,1781186197683
2076726116,3,1.8769501,10.719001,0.16605,1781186197692
2076726126,3,1.7260501,10.765051,0.43905002,1781186197703
2076726136,3,1.55595,10.714951,1.0639501,1781186197714
2076726146,3,1.3470001,10.615951,1.4929501,1781186197722
2076726156,3,1.1080501,10.498951,1.8379501,1781186197733
2076726166,3,0.8880001,10.417951,1.9909501,1781186197743
2076726176,3,0.78495,10.33395,2.1060002,1781186197753
2076726186,3,0.80205005,10.2960005,2.1420002,1781186197764
2076726196,3,0.94305,10.240951,2.115,1781186197774
2076726206,3,1.125,10.200001,1.9759501,1781186197783
2076726216,3,1.1700001,10.2310505,1.70595,1781186197794
2076726226,3,1.0890001,10.38405,1.4779501,1781186197804
2076726236,3,0.98595005,10.59,1.3279501,1781186197814
2076726246,3,0.837,10.96395,1.143,1781186197824
2076726257,3,0.61995006,11.392051,0.86295,1781186197834
2076726267,3,0.43500003,11.574,0.564,1781186197844
2076726277,3,0.42795002,11.337001,0.41505003,1781186197854
2076726287,3,0.62700003,10.71,0.29805002,1781186197865
2076726297,3,0.77295005,9.996,0.35295,1781186197883
2076726307,3,0.73905003,9.336,0.53505003,1781186197884
2076726317,3,0.61200005,8.854051,0.87000006,1781186197894
2076726327,3,0.483,8.577001,1.3470001,1781186197905
2076726337,3,0.33495003,8.377951,1.6339501,1781186197916
2076726347,3,0.162,8.221951,1.8520501,1781186197925
2076726357,3,0.022950001,8.083051,1.9210501,1781186197935
2076726367,3,-0.16005,8.11005,1.8739501,1781186197945
2076726377,3,-0.34395,8.076,1.8520501,1781186197955
2076726388,3,-0.55695003,8.17395,1.713,1781186197965
2076726398,3,-0.708,8.42805,1.6680001,1781186197976
2076726408,3,-0.82995003,8.67195,1.6009501,1781186197985
2076726418,3,-0.85905004,8.766001,1.4950501,1781186197996
2076726428,3,-0.90000004,9.43605,1.11705,1781186198006
2076726438,3,-1.00995,10.482,1.6290001,1781186198015
2076726448,3,-0.73200005,11.44995,1.4860501,1781186198026
2076726458,3,-0.35895002,11.890051,0.48195,1781186198035
2076726468,3,-0.27495003,12.148951,-0.42900002,1781186198045
2076726478,3,-0.54495,12.376051,-0.99105006,1781186198056
2076726488,3,-0.84195006,12.814051,-1.9590001,1781186198066
2076726498,3,-1.2589501,13.243051,-3.2989502,1781186198076
2076726508,3,-1.623,12.868951,-4.31895,1781186198086
2076726519,3,-1.9789501,12.007951,-4.5919504,1781186198096
2076726529,3,-2.11605,11.458951,-4.0300503,1781186198106
2076726539,3,-2.26005,11.46405,-3.6870003,1781186198116
2076726549,3,-2.23305,12.076951,-3.25395,1781186198126
2076726559,3,-1.47195,11.80395,-3.0529501,1781186198136
2076726569,3,-0.91905004,10.82505,-2.6860502,1781186198146
2076726579,3,-0.75795,9.90795,-2.05905,1781186198157
2076726589,3,-0.65505004,9.646951,-1.4100001,1781186198166
2076726599,3,-0.64395005,9.86505,-1.0180501,1781186198176
2076726609,3,-0.735,10.066051,-0.83100003,1781186198186
2076726619,3,-0.89295006,10.080001,-0.75900006,1781186198196
2076726629,3,-1.12695,9.87705,-0.69705003,1781186198211
2076726639,3,-1.36395,9.56805,-0.60105,1781186198216
2076726649,3,-1.4929501,9.172951,-0.48600003,1781186198226
2076726660,3,-1.6350001,8.89995,-0.37095,1781186198236
2076726670,3,-1.6969501,8.7300005,-0.21105,1781186198246
2076726680,3,-1.6870501,8.497951,-0.09105001,1781186198256
2076726690,3,-1.6680001,8.349,-0.015000001,1781186198267
2076726700,3,-1.66305,8.245951,0.126,1781186198277
2076726710,3,-1.6870501,8.196,0.21405001,1781186198287
2076726720,3,-1.7830501,8.2560005,0.186,1781186198298
2076726730,3,-1.9459502,8.445001,0.064050004,1781186198308
2076726740,3,-2.1420002,8.72295,-0.141,1781186198319
2076726750,3,-2.3749502,9.03195,-0.36405003,1781186198328
2076726760,3,-2.6190002,9.394951,-0.50295,1781186198338
2076726770,3,-2.8530002,9.609,-0.68205005,1781186198348
2076726780,3,-3.03795,9.723001,-0.79305005,1781186198357
2076726791,3,-3.18105,9.7900505,-0.84495,1781186198369
2076726801,3,-3.21495,9.766951,-0.81195,1781186198378
2076726811,3,-2.9560502,9.592051,-0.62505,1781186198388
2076726821,3,-2.35305,9.514951,-0.47700003,1781186198399
2076726831,3,-2.0010002,9.496051,-0.38805002,1781186198408
2076726841,3,-1.8139501,9.604051,-0.28305,1781186198419
2076726851,3,-1.6369501,9.64395,-0.201,1781186198430
2076726861,3,-1.5289501,9.86205,-0.07395,1781186198439
2076726871,3,-1.4119501,10.279051,0.11400001,1781186198448
2076726881,3,-1.24695,10.774951,0.25500003,1781186198458
2076726891,3,-1.0309501,11.27505,0.27405003,1781186198470
2076726901,3,-0.75405,11.598001,0.19005,1781186198479
2076726911,3,-0.39900002,11.739,-0.00705,1781186198489
2076726922,3,-0.034950003,11.6650505,-0.22500001,1781186198499
2076726932,3,0.33495003,11.377951,-0.46695003,1781186198509
2076726942,3,0.64395005,11.056951,-0.582,1781186198519
2076726952,3,0.86895007,10.7029505,-0.54405004,1781186198529
2076726962,3,0.97395,10.36005,-0.42405003,1781186198541
2076726972,3,0.93795,10.0990505,-0.14400001,1781186198549
2076726982,3,0.75105006,9.975,0.08295,1781186198560
2076726992,3,0.55005,10.000951,0.25305,1781186198569
2076727002,3,0.46605003,10.083,0.47805002,1781186198580
2076727012,3,0.531,10.18095,0.54705,1781186198590
2076727022,3,0.71805006,10.22595,0.43500003,1781186198600
2076727032,3,0.98595005,10.429951,0.37005,1781186198610
2076727042,3,1.2540001,10.695001,0.186,1781186198620
2076727052,3,1.5510001,10.992001,-0.036000002,1781186198630
2076727063,3,2.01795,11.19795,-0.333,1781186198640
2076727073,3,2.5110002,11.245951,-0.51000005,1781186198650
2076727083,3,2.973,11.031,-0.67995006,1781186198660
2076727093,3,3.41805,10.783951,-0.84300005,1781186198671
2076727103,3,3.7060502,10.557,-0.90495,1781186198680
2076727113,3,3.79905,10.233001,-0.94095004,1781186198690
2076727123,3,3.7180502,9.84105,-1.044,1781186198701
2076727133,3,3.3349502,9.5130005,-1.07295,1781186198712
2076727143,3,2.6500502,9.63,-1.0339501,1781186198720
2076727153,3,2.12805,9.597,-0.80505,1781186198730
2076727163,3,1.8499501,9.352051,-0.75405,1781186198740
2076727173,3,1.6830001,9.216001,-0.63195,1781186198750
2076727183,3,1.644,9.13395,-0.522,1781186198760
2076727194,3,1.64205,9.084001,-0.41895002,1781186198772
2076727204,3,1.6540501,9.12705,-0.30405003,1781186198782
2076727214,3,1.64205,9.24195,-0.22800002,1781186198790
2076727224,3,1.6009501,9.360001,-0.26805001,1781186198800
2076727234,3,1.51995,9.52005,-0.35895002,1781186198810
2076727244,3,1.45305,9.658951,-0.38805002,1781186198821
2076727254,3,1.4460001,9.81,-0.37095,1781186198831
2076727264,3,1.455,9.949051,-0.35895002,1781186198841
2076727274,3,1.5169501,9.996,-0.34005,1781186198851
2076727284,3,1.6009501,10.03005,-0.36405003,1781186198862
2076727294,3,1.66305,10.03905,-0.42195,1781186198871
2076727304,3,1.71105,10.152,-0.462,1781186198881
2076727314,3,1.7659501,10.317,-0.48900002,1781186198891
2076727325,3,1.8550501,10.365001,-0.52695,1781186198901
2076727335,3,1.98705,10.03695,-0.58905005,1781186198912
2076727345,3,1.968,9.723001,-0.675,1781186198922
2076727355,3,1.8960001,9.70005,-0.65595,1781186198935
2076727365,3,1.9120501,9.604051,-0.67995006,1781186198942
2076727375,3,1.848,9.474,-0.76905006,1781186198953
2076727385,3,1.7710501,9.51795,-0.86700004,1781186198962
2076727395,3,1.7590501,9.558001,-0.96300006,1781186198972
2076727405,3,1.6900501,9.526951,-1.00605,1781186198983
2076727415,3,1.5370501,9.655951,-0.975,1781186198993
2076727425,3,1.48395,9.955951,-0.94095004,1781186199003
2076727435,3,1.5150001,10.264951,-0.89295006,1781186199013
2076727445,3,1.52505,10.461,-0.87195003,1781186199023
2076727456,3,1.5169501,10.47795,-0.85695004,1781186199033
2076727466,3,1.5010501,10.33605,-0.77295005,1781186199043
2076727476,3,1.4599501,10.078051,-0.62700003,1781186199053
2076727486,3,1.386,9.759001,-0.58395004,1781186199063
2076727496,3,1.3090501,9.4789505,-0.60300004,1781186199073
2076727506,3,1.314,9.187051,-0.69195,1781186199083
2076727516,3,1.36395,9.027,-0.77805007,1781186199093
2076727526,3,1.4119501,8.95695,-0.855,1781186199103
2076727536,3,1.43805,9.07005,-0.90300006,1781186199113
2076727546,3,1.5150001,9.249001,-0.94305,1781186199124
2076727556,3,1.59195,9.582001,-0.924,1781186199134
2076727566,3,1.644,9.91005,-0.97905004,1781186199144
2076727576,3,1.644,10.114051,-1.07295,1781186199154
2076727586,3,1.5340501,10.144951,-1.26705,1781186199164
2076727597,3,1.3909501,10.102051,-1.37205,1781186199174
2076727607,3,1.338,9.967951,-1.33095,1781186199184
2076727617,3,1.4260501,9.81,-1.25205,1781186199194
2076727627,3,1.5079501,9.561001,-1.1179501,1781186199204
2076727637,3,1.5340501,9.321,-1.0180501,1781186199214
2076727647,3,1.4670001,9.13395,-0.99105006,1781186199225
2076727657,3,1.3950001,8.78295,-0.99405,1781186199234
2076727667,3,1.36905,8.497951,-1.0489501,1781186199245
2076727677,3,1.4260501,8.43105,-1.056,1781186199254
2076727687,3,1.66305,8.778001,-0.9889501,1781186199264
2076727697,3,1.8889501,9.22305,-1.07295,1781186199275
2076727707,3,1.9630501,9.678,-1.116,1781186199285
2076727717,3,1.881,10.189951,-1.0129501,1781186199295
2076727728,3,1.62495,10.8490505,-0.78795004,1781186199305
2076727738,3,1.26405,11.77305,-0.41895002,1781186199315
2076727748,3,0.84705,12.427051,-0.13905,1781186199325
2076727758,3,0.25995,12.61305,-0.003,1781186199335
2076727768,3,-0.49695003,12.441001,0.042000003,1781186199345
2076727778,3,-1.2060001,11.96205,-0.012,1781186199355
2076727788,3,-1.7020501,11.3560505,0.040050004,1781186199365
2076727798,3,-1.98195,10.81995,0.06105,1781186199375
2076727808,3,-2.2429502,10.209001,0.079950005,1781186199385
2076727818,3,-2.4180002,9.673051,-0.04095,1781186199396
2076727828,3,-2.56605,9.276,-0.18705001,1781186199406
2076727838,3,-2.6590502,9.028951,-0.43605003,1781186199416
2076727848,3,-2.67105,8.821051,-0.70905006,1781186199427
2076727859,3,-2.6569502,8.69205,-1.03695,1781186199437
2076727869,3,-2.63295,8.694,-1.3410001,1781186199447
2076727879,3,-2.53695,8.766001,-1.7670001,1781186199457
2076727889,3,-2.36295,8.907001,-2.1379502,1781186199467
2076727899,3,-2.0370002,9.03195,-2.4420002,1781186199476
2076727909,3,-1.5870001,9.040951,-2.53305,1781186199488
2076727919,3,-1.2210001,9.1369505,-2.39895,1781186199497
2076727929,3,-1.0170001,9.349951,-2.1979501,1781186199507
2076727939,3,-0.93600005,9.628051,-1.9300501,1781186199517
2076727949,3,-0.9979501,9.972,-1.473,1781186199526
2076727959,3,-1.1010001,10.2619505,-0.95295006,1781186199536
2076727969,3,-1.14195,10.473001,-0.47700003,1781186199546
2076727979,3,-1.074,10.6050005,-0.105000004,1781186199556
2076727989,3,-1.0170001,10.64505,0.25995,1781186199566
2076728000,3,-1.25205,10.9470005,0.35295,1781186199576
2076728010,3,-1.56105,11.46405,0.25005,1781186199587
2076728020,3,-1.7569501,11.887951,0.075,1781186199596
2076728030,3,-1.8570001,12.208951,-0.105000004,1781186199607
2076728040,3,-1.76205,12.28005,-0.36195,1781186199617
2076728050,3,-1.371,11.90505,-0.63900006,1781186199627
2076728060,3,-0.9670501,11.454,-1.0390501,1781186199637
2076728070,3,-0.72705,11.056951,-1.34595,1781186199647
2076728080,3,-0.48795003,10.588051,-1.56105,1781186199657
2076728090,3,-0.23895001,10.33395,-1.5370501,1781186199668
2076728100,3,0.109950006,10.06305,-1.5319501,1781186199678
2076728110,3,0.45000002,9.901051,-1.57605,1781186199688
2076728120,3,0.84195006,9.9199505,-1.5990001,1781186199698
2076728131,3,1.3570501,10.05105,-1.7340001,1781186199707
2076728141,3,1.9410001,10.0990505,-1.9009501,1781186199718
2076728151,3,2.4820502,10.00395,-2.12595,1781186199727
2076728161,3,2.9920502,9.89595,-2.421,1781186199738
2076728171,3,3.3679502,9.642,-2.6479502,1781186199748
2076728181,3,3.624,9.357,-2.77305,1781186199757
2076728191,3,3.66,9.280951,-2.7529502,1781186199769
2076728201,3,3.519,9.349951,-2.631,1781186199778
2076728211,3,3.07095,9.493951,-2.4760501,1781186199789
2076728221,3,2.60205,9.573001,-2.124,1781186199798
2076728231,3,2.22105,9.489,-1.94895,1781186199808
2076728241,3,1.95105,9.336,-1.8919501,1781186199819
2076728251,3,1.7230501,9.25905,-1.8049501,1781186199829
2076728262,3,1.52205,9.237,-1.7220001,1781186199840
2076728272,3,1.28505,9.3,-1.67595,1781186199848
2076728282,3,1.065,9.486,-1.60695,1781186199859
2076728292,3,0.91200006,9.807,-1.52295,1781186199870
2076728302,3,0.84900004,10.20195,-1.41795,1781186199881
2076728312,3,0.82305,10.542001,-1.25205,1781186199890
2076728322,3,0.80205005,10.803,-0.93105006,1781186199901
2076728332,3,0.78705,10.927951,-0.66105,1781186199909
2076728342,3,0.76605004,10.84395,-0.50295,1781186199920
2076728352,3,0.73695004,10.576051,-0.44805002,1781186199930
2076728362,3,0.88095003,10.11795,-0.46500003,1781186199940
2076728372,3,1.09095,9.711,-0.58905005,1781186199953
2076728382,3,1.24395,9.58005,-0.81900007,1781186199961
2076728393,3,1.4140501,9.597,-1.1590501,1781186199971
2076728403,3,1.5700501,9.625051,-1.48905,1781186199981
2076728413,3,1.7329501,9.621,-1.7479501,1781186199991
2076728423,3,1.8739501,9.70905,-1.863,1781186200000
2076728433,3,1.9219501,9.793051,-1.9470001,1781186200010
2076728443,3,1.6969501,9.835951,-2.0040002,1781186200020
2076728453,3,1.3620001,9.7900505,-1.8889501,1781186200031
2076728463,3,1.146,9.522,-1.7190001,1781186200040
2076728473,3,0.92100006,9.349951,-1.5280501,1781186200050
2076728483,3,0.735,9.328051,-1.317,1781186200060
2076728493,3,0.63405,9.43395,-1.14705,1781186200070
2076728503,3,0.56700003,9.57705,-1.01505,1781186200081
2076728513,3,0.56895,9.679951,-0.94095004,1781186200091
2076728523,3,0.684,9.77595,-0.8880001,1781186200101
2076728534,3,0.79200006,9.84105,-0.80205005,1781186200110
2076728544,3,0.8880001,9.879001,-0.71805006,1781186200120
2076728554,3,0.99300003,9.879001,-0.711,1781186200130
2076728564,3,1.1010001,9.846001,-0.73800004,1781186200143
2076728574,3,1.21095,9.747001,-0.82395005,1781186200152
2076728584,3,1.2559501,9.702001,-0.9889501,1781186200162
2076728594,3,1.2970501,9.68505,-1.14495,1781186200171
2076728604,3,1.32105,9.649051,-1.3600501,1781186200181
2076728614,3,1.33095,9.658951,-1.5079501,1781186200191
2076728624,3,1.32105,9.73095,-1.5679501,1781186200201
2076728634,3,1.3399501,9.831,-1.6350001,1781186200210
2076728644,3,1.28805,9.88395,-1.6980001,1781186200221
2076728654,3,1.3069501,9.913051,-1.554,1781186200232
2076728665,3,1.3090501,9.903001,-1.4290501,1781186200241
2076728675,3,1.25205,9.834001,-1.34595,1781186200252
2076728685,3,1.2060001,9.75195,-1.3240501,1781186200261
2076728695,3,1.16505,9.63,-1.3410001,1781186200271
2076728705,3,1.06005,9.570001,-1.3960501,1781186200282
2076728715,3,0.94005007,9.52005,-1.4490001,1781186200292
2076728725,3,0.84900004,9.493951,-1.485,1781186200302
2076728735,3,0.744,9.582001,-1.4749501,1781186200313
2076728745,3,0.648,9.702001,-1.45305,1781186200322
2076728755,3,0.588,9.766951,-1.51995,1781186200332
2076728765,3,0.54300004,9.891001,-1.4800501,1781186200343
2076728775,3,0.50895,10.04895,-1.41495,1781186200353
2076728785,3,0.46395,10.18095,-1.31505,1781186200363
2076728796,3,0.34695002,10.320001,-1.233,1781186200373
2076728806,3,0.22905001,10.411051,-1.092,1781186200383
2076728816,3,0.093,10.554001,-0.85005003,1781186200393
2076728826,3,-0.08595,10.8820505,-0.58695,1781186200403
2076728836,3,-0.29895002,11.265,-0.38595003,1781186200413
2076728846,3,-0.483,11.41905,-0.40500003,1781186200423
2076728856,3,-0.624,11.269951,-0.42900002,1781186200434
2076728866,3,-0.60795003,11.337001,-0.38595003,1781186200444
2076728876,3,-0.43500003,11.895,-0.39495003,1781186200455
2076728886,3,-0.21495001,12.4480505,-0.53205,1781186200464
2076728896,3,-0.076050006,12.678,-0.615,1781186200476
2076728906,3,0.00705,12.406951,-0.57495004,1781186200484
2076728916,3,0.097950004,11.79405,-0.354,1781186200495
2076728926,3,0.15,11.401951,-0.08400001,1781186200504
2076728937,3,0.19605,11.28705,0.15195,1781186200514
2076728947,3,0.17205001,11.112,0.23595001,1781186200524
2076728957,3,0.102000006,10.861051,0.25005,1781186200534
2076728967,3,0.058950003,10.509001,0.186,1781186200545
2076728977,3,0.03795,10.189951,0.13095,1781186200555
2076728987,3,0.21000001,9.814051,0.171,1781186200565
2076728997,3,0.423,9.460051,0.29295,1781186200574
2076729007,3,0.68205005,8.93295,0.36,1781186200585
2076729017,3,0.70095,8.502001,0.33195,1781186200594
2076729027,3,0.53295004,8.17905,0.22395001,1781186200604
2076729037,3,0.38295,7.9420505,0.102000006,1781186200615
2076729047,3,0.28005,7.9729505,-0.13905,1781186200625
2076729057,3,0.30105,8.27295,-0.47205,1781186200635
2076729068,3,0.37095,8.60805,-0.71595,1781186200645
2076729078,3,0.38295,8.92395,-0.82395005,1781186200655
2076729088,3,0.282,9.22095,-0.81900007,1781186200665
2076729098,3,0.141,9.5130005,-0.66300005,1781186200675
2076729108,3,-0.031050002,9.817051,-0.36405003,1781186200685
2076729118,3,-0.20805001,10.107,-0.08895,1781186200695
2076729128,3,-0.38700002,10.33605,0.11400001,1781186200705
2076729138,3,-0.58095,10.41495,0.24300002,1781186200717
2076729148,3,-0.73695004,10.429951,0.38895002,1781186200726
2076729158,3,-0.85200006,10.317,0.432,1781186200735
2076729168,3,-0.98100007,10.2310505,0.372,1781186200745
2076729178,3,-1.1340001,10.252951,0.33900002,1781186200756
2076729188,3,-1.2400501,10.272,0.19995001,1781186200766
2076729199,3,-1.3429501,10.279051,0.147,1781186200775
2076729209,3,-1.40505,10.30305,0.07095,1781186200788
2076729219,3,-1.35195,10.248,-0.061950002,1781186200796
2076729229,3,-1.23705,10.126051,-0.21105,1781186200806
2076729239,3,-1.1389501,9.982051,-0.35700002,1781186200817
2076729249,3,-1.074,9.88395,-0.55605,1781186200827
2076729259,3,-0.98595005,9.835951,-0.61800003,1781186200837
2076729269,3,-0.79395,9.781051,-0.53895,1781186200846
2076729279,3,-0.60495,9.811951,-0.45000002,1781186200856
2076729289,3,-0.35595003,9.846001,-0.19905001,1781186200867
2076729299,3,-0.16005,9.891001,0.066,1781186200877
2076729309,3,-0.097950004,10.008,0.291,1781186200887
2076729319,3,-0.022950001,10.03005,0.55395,1781186200896
2076729330,3,-0.08805001,9.955951,0.71205,1781186200907
2076729340,3,-0.33705002,10.04895,0.75795,1781186200918
2076729350,3,-0.60495,10.02,0.61395,1781186200926
2076729360,3,-0.75405,9.774,0.37695003,1781186200936
2076729370,3,-0.8880001,9.5460005,0.135,1781186200947
2076729380,3,-1.01505,9.39795,-0.048,1781186200957
2076729390,3,-1.19895,9.321,-0.08595,1781186200968
2076729400,3,-1.3570501,9.273001,-0.21105,1781186200978
2076729410,3,-1.539,9.312,-0.141,1781186200987
2076729420,3,-1.67505,9.34305,-0.16095,1781186200997
2076729430,3,-1.7760001,9.352051,-0.16995001,1781186201007
2076729440,3,-1.8430501,9.360001,-0.17295001,1781186201018
2076729450,3,-1.8739501,9.44295,-0.109950006,1781186201028
2076729460,3,-1.9200001,9.661051,-0.072000004,1781186201038
2076729471,3,-2.02005,9.979951,-0.0049500004,1781186201048
2076729481,3,-2.15895,10.405951,0.21900001,1781186201057
2076729491,3,-2.2740002,10.885051,0.43500003,1781186201068
2076729501,3,-2.2810502,11.277,0.61695004,1781186201078
2076729511,3,-2.2429502,11.41905,0.76005006,1781186201089
2076729521,3,-2.157,11.27295,0.94200003,1781186201099
2076729531,3,-1.8049501,10.83195,1.02795,1781186201108
2076729541,3,-1.3429501,10.35105,0.89400005,1781186201118
2076729551,3,-1.005,9.979951,0.71205,1781186201128
2076729561,3,-0.84900004,9.778951,0.48000002,1781186201139
2076729571,3,-0.71805006,9.592051,0.31995,1781186201149
2076729581,3,-0.51900005,9.4459505,0.14505,1781186201158
2076729591,3,-0.29595003,9.429001,-0.025950002,1781186201169
2076729602,3,-0.061950002,9.493951,-0.19905001,1781186201179
2076729612,3,0.097950004,9.625051,-0.33495003,1781186201189
2076729622,3,0.20295002,9.795,-0.38805002,1781186201199
2076729632,3,0.24105,10.03005,-0.30405003,1781186201210
2076729642,3,0.26805001,10.2289505,-0.132,1781186201220
2076729652,3,0.27195,10.344001,0.11595,1781186201230
2076729662,3,0.33195,10.33905,0.291,1781186201240
2076729672,3,0.42795002,10.18095,0.42495003,1781186201249
2076729682,3,0.51195,10.00605,0.51405,1781186201260
2076729692,3,0.57900006,9.711,0.48495004,1781186201270
2076729702,3,0.56505,9.486,0.46800002,1781186201280
2076729712,3,0.46605003,9.481951,0.32895002,1781186201290
2076729722,3,0.33705002,9.55095,0.12105001,1781186201300
2076729733,3,0.19605,9.703951,-0.00705,1781186201310
2076729743,3,0.064050004,9.826051,-0.096,1781186201320
2076729753,3,-0.010950001,9.91005,-0.105000004,1781186201330
2076729763,3,-0.021000002,9.92205,-0.097950004,1781186201340
2076729773,3,0.025950002,9.8550005,-0.036000002,1781186201350
2076729783,3,0.105000004,9.76395,0.054,1781186201360
2076729793,3,0.124050006,9.640051,0.102000006,1781186201370
2076729803,3,0.112050004,9.55305,0.16605,1781186201381
2076729813,3,0.14295001,9.57495,0.17400001,1781186201390
2076729823,3,0.16695,9.690001,0.10695001,1781186201401
2076729833,3,0.201,9.850051,0.034950003,1781186201411
2076729843,3,0.24405001,9.975,-0.028950002,1781186201421
2076729853,3,0.29205,10.083,-0.08400001,1781186201433
2076729863,3,0.32505003,10.141951,-0.13395001,1781186201441
2076729874,3,0.33900002,10.114051,-0.16095,1781186201450
2076729884,3,0.31305,10.032001,-0.18900001,1781186201460
2076729894,3,0.24900001,9.975,-0.201,1781186201470
2076729904,3,0.21000001,9.901051,-0.13695,1781186201480
2076729914,3,0.19605,9.778951,-0.10305001,1781186201490
2076729924,3,0.14595,9.70905,-0.08595,1781186201500
2076729934,3,0.102000006,9.70695,-0.015000001,1781186201511
2076729944,3,0.040050004,9.814051,-0.0049500004,1781186201521
2076729954,3,-0.04695,9.976951,0.102000006,1781186201531
2076729964,3,-0.08595,10.078051,0.13305001,1781186201542
2076729974,3,-0.12195001,10.224001,0.18105,1781186201550
2076729984,3,-0.14595,10.41495,0.279,1781186201561
2076729994,3,-0.20505,10.566001,0.31500003,1781186201571
2076730005,3,-0.24105,10.618951,0.31995,1781186201580
2076730015,3,-0.27,10.53495,0.26700002,1781186201591
2076730025,3,-0.32505003,10.375051,0.23805001,1781186201602
2076730035,3,-0.34695002,10.129951,0.26895002,1781186201612
2076730045,3,-0.45195,9.90495,0.24105,1781186201623
2076730055,3,-0.50505,9.71595,0.26205,1781186201632
2076730065,3,-0.52395004,9.55305,0.28605002,1781186201642
2076730075,3,-0.52095,9.469951,0.31695002,1781186201652
2076730085,3,-0.49500003,9.474,0.35295,1781186201663
2076730095,3,-0.46905002,9.538951,0.37005,1781186201673
2076730105,3,-0.40395,9.592051,0.31500003,1781186201683
2076730115,3,-0.363,9.561001,0.24495001,1781186201693
2076730125,3,-0.33,9.501,0.25500003,1781186201704
2076730136,3,-0.30795002,9.451051,0.29595003,1781186201714
2076730146,3,-0.282,9.361951,0.351,1781186201723
2076730156,3,-0.27,9.297001,0.39405003,1781186201733
2076730166,3,-0.21705002,9.216001,0.384,1781186201743
2076730176,3,-0.162,9.196951,0.30105,1781186201753
2076730186,3,-0.141,9.25395,0.171,1781186201764
2076730196,3,-0.11895001,9.325951,0.028050002,1781186201773
2076730206,3,-0.124050006,9.393001,-0.12495001,1781186201784
2076730216,3,-0.15795001,9.493951,-0.25905,1781186201793
2076730226,3,-0.19605,9.637051,-0.381,1781186201804
2076730236,3,-0.17895001,9.747001,-0.52395004,1781186201813
2076730246,3,-0.12900001,9.84105,-0.651,1781186201824
2076730256,3,-0.097950004,10.011001,-0.74205005,1781186201834
2076730267,3,-0.08295,10.18605,-0.76095,1781186201844
2076730277,3,-0.11895001,10.449,-0.74505,1781186201855
2076730287,3,-0.22695,10.777051,-0.73800004,1781186201864
2076730297,3,-0.32700002,11.083051,-0.79005,1781186201876
2076730307,3,-0.37800002,11.32005,-0.9580501,1781186201885
2076730317,3,-0.351,11.524051,-1.1539501,1781186201894
2076730327,3,-0.23700002,11.884951,-1.33605,1781186201904
2076730337,3,-0.15,12.59595,-1.3740001,1781186201914
2076730347,3,-0.093,13.530001,-1.35,1781186201924
2076730357,3,-0.07095,14.541,-1.3600501,1781186201934
2076730367,3,0.00405,15.346951,-1.26405,1781186201945
2076730377,3,0.0139500005,15.946051,-1.2040501,1781186201956
2076730387,3,-0.11895001,16.365002,-1.19505,1781186201965
2076730397,3,-0.38295,16.38705,-1.26405,1781186201975
2076730408,3,-0.51195,16.14195,-1.2360001,1781186201985
2076730418,3,-0.57600003,15.76395,-1.0129501,1781186201995
2076730428,3,-0.54795,15.216001,-0.52905005,1781186202006
2076730438,3,-0.36795002,14.554951,0.40095,1781186202016
2076730448,3,-0.21300001,14.074051,1.524,1781186202026
2076730458,3,-0.32505003,14.040001,2.3119502,1781186202036
2076730468,3,-0.61995006,13.578001,3.0540001,1781186202045
2076730478,3,-1.01505,12.90495,3.4969501,1781186202055
2076730488,3,-1.3950001,11.863951,3.8250003,1781186202065
2076730498,3,-1.5150001,10.474951,4.3780503,1781186202076
2076730508,3,-1.67505,9.43395,5.3160005,1781186202086
2076730518,3,-1.89795,8.851951,6.0079503,1781186202096
2076730528,3,-2.23095,8.589001,6.35505,1781186202106
2076730539,3,-2.667,8.00205,6.39405,1781186202116
2076730549,3,-2.9250002,7.767,6.16905,1781186202126
2076730559,3,-3.0660002,7.6170006,5.78595,1781186202136
2076730569,3,-3.10695,7.4059505,5.14905,1781186202147
2076730579,3,-3.08295,7.2739506,4.737,1781186202156
2076730589,3,-2.49195,7.5330005,4.7899504,1781186202166
2076730599,3,-1.113,7.3960505,4.72305,1781186202176
2076730609,3,-0.33195,7.6189504,4.1860504,1781186202186
2076730619,3,0.22200002,7.59,3.5760002,1781186202196
2076730629,3,0.61200005,7.32705,2.7880502,1781186202206
2076730639,3,0.85200006,7.2240005,2.22105,1781186202217
2076730649,3,1.0720501,7.2690005,1.8040501,1781186202227
2076730659,3,1.26795,7.3650002,1.5460501,1781186202236
2076730670,3,1.5490501,7.5040503,1.4670001,1781186202248
2076730680,3,1.89795,7.66905,1.50495,1781186202258
2076730690,3,2.2810502,7.7389503,1.6870501,1781186202266
2076730730,3,2.79795,6.7429504,2.4070501,1781186202306
2076730740,3,2.736,6.5890503,2.4820502,1781186202316
2076730750,3,2.6790001,6.6160502,2.56095,1781186202326
2076730760,3,2.6880002,6.7710004,2.7829502,1781186202336
2076730770,3,2.772,6.9889503,2.9839501,1781186202346
2076730780,3,2.868,7.2049503,3.1210501,1781186202356
2076730790,3,3.00195,7.18095,3.0949502,1781186202366
2076730800,3,3.0349503,6.951,2.8840501,1781186202378
2076730811,3,2.9659503,6.6520505,2.4859502,1781186202386
2076730821,3,2.8650002,6.4630504,2.1340501,1781186202396
2076730831,3,2.7859502,6.33795,1.89495,1781186202407
2076730841,3,2.7820501,6.2449503,1.7950501,1781186202417
2076730851,3,2.8170002,6.2059503,1.9480501,1781186202427
2076730861,3,2.8920002,6.28305,2.28795,1781186202437
2076730871,3,2.9200501,6.36705,2.4510002,1781186202447
2076730881,3,2.9320502,6.38805,2.2810502,1781186202457
2076730891,3,2.8270502,6.1200004,1.7389501,1781186202468
2076730901,3,2.5420501,5.6940002,1.04805,1781186202477
2076730911,3,2.229,5.2249503,0.52995,1781186202488
2076730921,3,2.01795,4.64295,0.40095,1781186202498
2076730931,3,1.8330001,4.15005,0.52605003,1781186202508
2076730942,3,1.6800001,3.9150002,0.94695,1781186202518
2076730952,3,1.5700501,4.01805,1.3990501,1781186202528
2076730962,3,1.47405,4.8900003,1.5340501,1781186202539
2076730972,3,1.2589501,5.6290503,1.53795,1781186202550
2076730982,3,0.93105006,6.47205,1.04805,1781186202558
2076730992,3,0.54300004,7.4820004,0.753,1781186202568
2076731002,3,0.11400001,8.59095,0.62895006,1781186202578
2076731012,3,-0.17205001,10.279051,0.65205,1781186202588
2076731022,3,-0.40695003,12.015,0.693,1781186202600
2076731032,3,-0.57600003,13.42695,0.61905,1781186202609
2076731042,3,-0.73905003,14.835001,0.53295004,1781186202618
2076731052,3,-0.85905004,15.868951,0.76005006,1781186202629
2076731062,3,-0.83295006,16.570951,0.88005006,1781186202639
2076731073,3,-0.78000003,17.188951,1.0879501,1781186202650
2076731083,3,-0.90405005,17.97105,1.03995,1781186202659
2076731093,3,-1.3069501,18.867,0.34800002,1781186202669
2076731103,3,-1.644,19.779001,-0.23205002,1781186202679
2076731113,3,-2.08005,20.302952,-1.1539501,1781186202689
2076731123,3,-2.5489502,20.629051,-1.57305,1781186202699
2076731133,3,-2.607,20.494951,-0.90495,1781186202709
2076731143,3,-2.0659502,19.93995,-0.096,1781186202720
2076731153,3,-1.66305,19.398,0.62895006,1781186202730
2076731163,3,-1.52205,18.61095,0.70005006,1781186202739
2076731173,3,-1.4119501,17.341951,0.423,1781186202750
2076731183,3,-1.2040501,15.45495,0.44700003,1781186202760
2076731193,3,-0.97905004,13.719001,0.66,1781186202770
2076731203,3,-0.76305,11.77305,0.99000007,1781186202780
2076731214,3,-0.88095003,10.267051,1.5000001,1781186202791
2076731224,3,-1.56105,10.104,2.28795,1781186202800
2076731234,3,-2.01105,9.754951,3.183,1781186202810
2076731244,3,-2.19,9.55605,3.6810002,1781186202819
2076731254,3,-2.367,9.5460005,4.19805,1781186202829
2076731264,3,-2.38695,9.946051,4.2340503,1781186202840
2076731274,3,-2.1420002,9.64395,4.75605,1781186202851
2076731284,3,-1.8360001,9.541051,6.1639504,1781186202861
2076731294,3,-0.89295006,9.40695,6.7960505,1781186202871
2076731304,3,-0.14805001,9.19005,5.0389504,1781186202881
2076731314,3,-0.03795,9.156,3.08505,1781186202891
2076731324,3,0.18900001,9.12495,1.5480001,1781186202901
2076731334,3,0.86595005,9.027,0.657,1781186202911
2076731345,3,1.764,8.680051,0.68805003,1781186202921
2076731355,3,2.5540502,8.434951,0.813,1781186202932
2076731365,3,3.1690502,8.076,0.92505,1781186202941
2076731375,3,3.5380502,7.6140003,1.0000501,1781186202951
2076731385,3,3.7080002,7.2289505,1.0309501,1781186202961
2076731395,3,3.588,6.9270005,0.96405005,1781186202971
2076731405,3,2.90805,7.0230002,0.777,1781186202981
2076731415,3,2.20005,7.5330005,0.71505004,1781186202991
2076731425,3,2.0700002,7.5349503,0.67200005,1781186203002
2076731435,3,2.0730002,7.5400505,0.64305,1781186203012
2076731445,3,1.9600501,7.7359505,0.58305,1781186203022
2076731455,3,1.8220501,8.004001,0.64995,1781186203033
2076731465,3,1.62495,8.514,0.81000006,1781186203042
2076731476,3,1.335,9.07005,1.0020001,1781186203052
2076731486,3,1.02405,9.714001,1.04505,1781186203062
2076731496,3,0.75600004,10.128,0.96105003,1781186203073
2076731506,3,0.53805,10.20705,0.87000006,1781186203082
2076731516,3,0.35595003,10.090051,0.92805004,1781186203093
2076731526,3,0.31995,9.73305,1.0380001,1781186203102
2076731536,3,0.46395,9.52005,1.27995,1781186203112
2076731546,3,0.73005,9.558001,1.1550001,1781186203122
2076731556,3,0.96405005,9.61305,0.64995,1781186203132
2076731566,3,1.2280501,9.549001,0.171,1781186203142
2076731576,3,1.575,9.23295,-0.24195,1781186203152
2076731586,3,1.6969501,8.93595,-0.51195,1781186203162
2076731596,3,1.8769501,8.48595,-0.56295,1781186203172
2076731607,3,2.0389502,8.26305,-0.56505,1781186203182
2076731617,3,2.217,8.182051,-0.50100005,1781186203193
2076731627,3,2.3790002,8.11905,-0.52005005,1781186203203
2076731637,3,2.5800002,8.056951,-0.59400004,1781186203218
2076731647,3,2.7600002,8.136001,-0.61800003,1781186203223
2076731657,3,2.9490001,8.13405,-0.40995002,1781186203234
2076731667,3,2.976,8.217,-0.24705002,1781186203242
2076731677,3,2.877,8.44305,-0.052950002,1781186203254
2076731687,3,2.6809502,8.78295,-0.0049500004,1781186203265
2076731697,3,2.5489502,9.11295,-0.02205,1781186203273
2076731707,3,2.5830002,9.205951,-0.31095,1781186203283
2076731717,3,2.6140501,9.22305,-0.72300005,1781186203294
2076731727,3,2.7,8.971951,-1.2090001,1781186203304
2076731737,3,2.5450501,8.706,-1.4080501,1781186203314
2076731748,3,2.094,8.578951,-1.28295,1781186203325
2076731758,3,1.6800001,8.610001,-0.75000006,1781186203334
2076731768,3,1.47195,8.64105,-0.56805,1781186203345
2076731778,3,1.1389501,8.95995,-0.38805002,1781186203354
2076731788,3,0.82995003,9.361951,-0.50505,1781186203364
2076731798,3,0.55305004,9.508051,-0.55305004,1781186203374
2076731808,3,0.25995,9.45495,-0.66795003,1781186203385
2076731818,3,-0.040050004,9.60105,-0.606,1781186203395
2076731828,3,-0.29595003,9.63195,-0.63705003,1781186203404
2076731838,3,-0.507,9.41895,-0.82905006,1781186203414
2076731848,3,-0.74205005,9.280951,-0.9580501,1781186203425
2076731858,3,-0.96405005,9.53205,-0.89595,1781186203435
2076731868,3,-0.93795,9.489,-0.90300006,1781186203445
2076731879,3,-0.84900004,9.69495,-0.91200006,1781186203455
2076731889,3,-0.84195006,10.07295,-0.94305,1781186203464
2076731899,3,-0.90195006,10.377001,-1.116,1781186203475
2076731909,3,-0.97200006,10.243051,-1.3240501,1781186203486
2076731919,3,-1.1010001,9.99405,-1.386,1781186203496
2076731929,3,-1.1700001,9.805051,-1.2790501,1781186203506
2076731939,3,-1.0669501,9.847951,-1.116,1781186203515
2076731949,3,-0.82800007,10.126051,-0.93405,1781186203525
2076731959,3,-0.73905003,10.408051,-0.86205006,1781186203535
2076731969,3,-0.73695004,10.557,-0.76905006,1781186203546
2076731979,3,-0.86100006,10.67595,-0.57195,1781186203556
2076731989,3,-1.0360501,10.944,-0.30705002,1781186203566
2076731999,3,-1.1770501,11.49495,-0.105000004,1781186203576
2076732010,3,-1.28505,12.004951,-0.031050002,1781186203585
2076732020,3,-1.422,12.312,-0.201,1781186203597
2076732030,3,-1.575,12.241951,-0.54405004,1781186203606
2076732040,3,-1.6800001,11.802001,-0.90300006,1781186203616
2076732050,3,-1.7500501,11.188951,-1.176,1781186203626
2076732060,3,-1.6300501,10.71195,-1.2240001,1781186203636
2076732070,3,-1.383,10.38405,-1.21395,1781186203646
2076732080,3,-0.80595005,10.37205,-0.582,1781186203656
2076732090,3,-0.62700003,10.63605,-1.197,1781186203666
2076732100,3,-0.67905,10.85595,-1.36995,1781186203676
2076732110,3,-0.73200005,10.9470005,-1.45305,1781186203686
2076732120,3,-1.1029501,11.239051,-1.25205,1781186203696
2076732130,3,-1.12995,11.3560505,-0.93405,1781186203708
2076732140,3,-0.86595005,11.038051,-0.85005003,1781186203716
2076732151,3,-0.56205004,10.578,-0.95100003,1781186203726
2076732161,3,-0.49995002,10.189951,-0.975,1781186203737
2076732171,3,-0.53295004,9.805051,-0.88395005,1781186203747
2076732181,3,-0.624,9.735001,-0.67305005,1781186203757
2076732191,3,-0.49500003,9.8890505,-0.55995005,1781186203767
2076732201,3,-0.045,9.988951,-0.81900007,1781186203777
2076732211,3,0.45900002,10.035001,-1.164,1781186203787
2076732221,3,0.924,9.73305,-1.5439501,1781186203797
2076732231,3,1.14405,9.364051,-1.5469501,1781186203809
2076732241,3,1.02405,9.508051,-1.2570001,1781186203817
2076732251,3,0.73005,10.05405,-1.176,1781186203829
2076732261,3,0.64605004,10.221001,-1.0180501,1781186203838
2076732271,3,0.68205005,10.177951,-0.78795004,1781186203850
2076732282,3,0.51900005,9.850051,-0.642,1781186203857
2076732292,3,0.057000004,9.654,-0.141,1781186203868
2076732302,3,-0.47400004,9.975,0.13800001,1781186203878
2076732312,3,-0.97605,10.576051,0.135,1781186203890
2076732322,3,-1.30005,10.95195,-0.072000004,1781186203899
2076732332,3,-1.31595,10.827001,-0.40695003,1781186203908
2076732342,3,-0.97395,10.221001,-0.63000005,1781186203918
2076732352,3,-0.70305,10.111051,-0.89595,1781186203928
2076732362,3,-0.75405,10.542001,-0.795,1781186203940
2076732372,3,-0.81795,10.972951,-0.52005005,1781186203948
2076732382,3,-0.73200005,11.203051,-0.41700003,1781186203958
2076732392,3,-0.52605003,11.016001,-0.48600003,1781186203969
2076732402,3,-0.39000002,10.50405,-0.60105,1781186203979
2076732413,3,-0.28905,9.943951,-0.771,1781186203989
2076732423,3,-0.27495003,9.55605,-0.86895007,1781186203999
2076732433,3,-0.28395,9.204,-0.93105006,1781186204009
2076732443,3,-0.29895002,9.175051,-1.0680001,1781186204019
2076732453,3,-0.32295,9.229951,-1.2400501,1781186204029
2076732463,3,-0.30105,9.312,-1.42005,1781186204041
2076732473,3,-0.39900002,9.67605,-1.4250001,1781186204051
2076732483,3,-0.6,9.89805,-1.338,1781186204059
2076732493,3,-0.73905003,9.99405,-1.0009501,1781186204071
2076732503,3,-0.85905004,9.82905,-0.84000003,1781186204080
2076732513,3,-1.05495,9.8550005,-0.51195,1781186204089
2076732523,3,-1.1200501,9.754951,-0.354,1781186204099
2076732533,3,-1.1770501,9.73995,-0.117000006,1781186204111
2076732544,3,-1.19895,9.783,-0.16995001,1781186204121
2076732554,3,-1.4929501,10.071,-0.67800003,1781186204131
2076732564,3,-1.5630001,10.059,-1.0009501,1781186204140
2076732574,3,-1.572,10.02795,-1.18005,1781186204150
2076732584,3,-1.491,9.91695,-1.28295,1781186204160
2076732594,3,-1.45305,10.05405,-1.176,1781186204170
2076732604,3,-1.48395,10.375051,-0.924,1781186204180
2076732614,3,-1.4790001,10.64805,-0.75000006,1781186204191
2076732624,3,-1.5289501,11.068951,-0.53895,1781186204201
2076732634,3,-1.1370001,11.217001,-0.141,1781186204211
2076732644,3,-0.75105006,10.861051,-0.92700005,1781186204221
2076732654,3,-0.735,10.810051,-0.99600005,1781186204231
2076732664,3,-0.85200006,10.794001,-1.0489501,1781186204241
2076732674,3,-1.1010001,10.911,-1.09395,1781186204250
2076732685,3,-1.1580001,10.956,-1.2739501,1781186204262
2076732695,3,-1.02705,10.62405,-1.5439501,1781186204271
2076732705,3,-0.97905004,10.032001,-1.5990001,1781186204280
2076732715,3,-1.005,9.51,-1.365,1781186204291
2076732725,3,-1.04595,8.964001,-1.15695,1781186204301
2076732735,3,-1.21095,9.063001,-0.80505,1781186204311
2076732745,3,-1.3450501,9.38805,-0.64695,1781186204322
2076732755,3,-1.26795,9.451051,-0.67095006,1781186204332
2076732765,3,-1.2400501,9.57705,-0.72105,1781186204342
2076732775,3,-1.2589501,9.7900505,-0.69705003,1781186204351
2076732785,3,-1.26795,9.91005,-0.81705004,1781186204361
2076732795,3,-1.31895,10.03695,-0.9889501,1781186204372
2076732805,3,-1.302,10.078051,-1.0009501,1781186204381
2076732816,3,-1.29495,9.943951,-1.08,1781186204392
2076732826,3,-1.3120501,9.759001,-1.06605,1781186204402
2076732836,3,-1.314,9.4789505,-0.99600005,1781186204413
2076732846,3,-1.24695,9.216001,-0.85005003,1781186204423
2076732856,3,-1.2060001,9.264001,-0.68700004,1781186204434
2076732866,3,-1.1920501,9.65205,-0.61305004,1781186204443
2076732876,3,-0.98595005,9.946051,-0.55305004,1781186204453
2076732886,3,-0.75405,10.03005,-0.49605003,1781186204462
2076732896,3,-0.651,9.925051,-0.55605,1781186204473
2076732906,3,-0.60795003,9.774,-0.42195,1781186204483
2076732916,3,-0.60495,9.604051,-0.41700003,1781186204493
2076732926,3,-0.624,9.469951,-0.36900002,1781186204502
2076732936,3,-0.67200005,9.484051,-0.60300004,1781186204512
2076732947,3,-0.82305,9.71895,-0.83595,1781186204523
2076732957,3,-1.01205,10.111051,-1.1590501,1781186204533
2076732967,3,-1.06305,10.33605,-1.3909501,1781186204542
2076732977,3,-0.92805004,10.233001,-1.50405,1781186204553
2076732987,3,-0.93600005,9.99195,-1.57305,1781186204562
2076732997,3,-0.93795,9.72105,-1.45605,1781186204572
2076733007,3,-0.81105006,9.46695,-1.0870501,1781186204584
2076733017,3,-0.79395,9.361951,-0.88395005,1781186204593
2076733027,3,-0.95505005,9.606001,-0.651,1781186204603
2076733037,3,-0.984,9.9199505,-0.47700003,1781186204613
2076733047,3,-0.9979501,10.18095,-0.58905005,1781186204624
2076733057,3,-1.0669501,10.20705,-0.76605004,1781186204633
2076733067,3,-1.12695,10.147051,-0.97695005,1781186204643
2076733077,3,-1.2919501,10.321951,-1.0390501,1781186204653
2076733088,3,-1.3930501,10.453951,-0.9889501,1781186204664
2076733098,3,-1.48395,10.662001,-0.97005004,1781186204674
2076733108,3,-1.5679501,10.830001,-0.95100003,1781186204684
2076733118,3,-1.5490501,10.82505,-0.89595,1781186204693
2076733128,3,-1.371,10.462951,-0.82095003,1781186204705
2076733138,3,-1.1029501,10.165951,-0.726,1781186204713
2076733148,3,-1.05495,10.281,-0.70395005,1781186204725
2076733158,3,-1.16805,10.69995,-0.65895003,1781186204734
2076733168,3,-1.1389501,10.90095,-0.75000006,1781186204744
2076733178,3,-1.0390501,10.911,-1.01505,1781186204754
2076733188,3,-0.72300005,10.47795,-1.128,1781186204764
2076733198,3,-0.52905005,10.000951,-1.09395,1781186204774
2076733208,3,-0.363,9.472051,-0.98700005,1781186204784
2076733219,3,-0.15495001,9.172951,-0.62295,1781186204796
2076733229,3,-0.162,9.68505,-0.28005,1781186204806
2076733239,3,-0.34905002,10.758,-0.23505001,1781186204815
2076733249,3,-0.24105,11.104951,-0.36405003,1781186204825
2076733259,3,0.12195001,10.24995,-0.92205006,1781186204835
2076733269,3,-0.010950001,9.658951,-0.984,1781186204845
2076733279,3,-0.17895001,9.537001,-0.711,1781186204856
2076733289,3,-0.33,10.141951,-0.33495003,1781186204865
2076733299,3,-0.29205,10.633051,-0.34500003,1781186204875
2076733309,3,-0.057000004,10.774951,-0.735,1781186204886
2076733319,3,-0.07095,10.54905,-1.42005,1781186204895
2076733329,3,-0.50205004,10.482,-1.3909501,1781186204905
2076733339,3,-0.91200006,10.252951,-1.1880001,1781186204916
2076733350,3,-1.314,10.19505,-0.86895007,1781186204928
2076733360,3,-1.764,10.2960005,-0.73995006,1781186204935
2076733370,3,-2.1019502,10.533001,-0.60795003,1781186204945
2076733380,3,-2.21895,10.435051,-0.63495004,1781186204956
2076733390,3,-2.22105,10.05105,-0.78105,1781186204966
2076733400,3,-2.2429502,9.74295,-0.83100003,1781186204976
2076733410,3,-2.286,9.807,-0.73995006,1781186204986
2076733420,3,-2.595,10.123051,-0.53895,1781186204998
2076733430,3,-2.97795,10.602,-0.558,1781186205007
2076733440,3,-3.1549501,10.729051,-0.62505,1781186205015
2076733450,3,-3.14295,10.48005,-0.77805007,1781186205027
2076733460,3,-3.01605,9.814051,-0.89805007,1781186205036
2076733470,3,-2.901,9.766951,-0.70605004,1781186205046
2076733480,3,-2.9560502,10.429951,-0.51705,1781186205057
2076733491,3,-2.63295,10.753051,-0.48405004,1781186205068
2076733501,3,-2.32395,10.863001,-0.37605003,1781186205077
2076733511,3,-1.8720001,10.36305,-0.75705004,1781186205087
2076733521,3,-1.8019501,9.913051,-1.05795,1781186205098
2076733531,3,-1.9050001,9.769051,-1.3240501,1781186205109
2076733541,3,-1.8960001,9.609,-1.18005,1781186205118
2076733551,3,-1.7710501,9.333,-1.1899501,1781186205127
2076733561,3,-1.5340501,9.06,-1.1179501,1781186205137
2076733571,3,-1.2559501,8.895,-1.0699501,1781186205147
2076733581,3,-1.06305,8.878051,-0.84300005,1781186205157
2076733591,3,-0.90705,9.024,-0.65595,1781186205168
2076733601,3,-1.0890001,9.666,-0.558,1781186205178
2076733611,3,-1.3279501,10.188001,-0.34305,1781186205188
2076733622,3,-1.3950001,10.20705,-0.13395001,1781186205197
2076733632,3,-1.386,9.70005,-0.201,1781186205208
2076733642,3,-1.5769501,9.771001,-0.15105,1781186205218
2076733652,3,-1.7350501,10.096951,-0.07395,1781186205228
2076733662,3,-1.7209501,10.356001,-0.028950002,1781186205238
2076733672,3,-1.7950501,10.68795,-0.079050004,1781186205248
2076733682,3,-1.90005,11.055,-0.30900002,1781186205258
2076733692,3,-1.9699501,11.0449505,-0.462,1781186205269
2076733702,3,-1.7899501,10.48995,-0.59400004,1781186205280
2076733712,3,-1.71105,10.108951,-0.78105,1781186205288
2076733722,3,-1.6680001,9.781051,-0.75405,1781186205299
2076733732,3,-1.4959501,9.394951,-0.75705004,1781186205309
2076733742,3,-1.3930501,9.12495,-0.85200006,1781186205319
2076733753,3,-1.3789501,9.022051,-0.95295006,1781186205329
2076733763,3,-1.23705,9.142051,-0.82095003,1781186205339
2076733773,3,-0.96195006,9.502951,-0.78300005,1781186205349
2076733783,3,-0.735,9.823951,-0.84495,1781186205359
2076733793,3,-0.54105,9.843,-1.18305,1781186205369
2076733803,3,-0.43005002,9.975,-1.1209501,1781186205379
2076733813,3,-0.34695002,10.224001,-0.82905006,1781186205391
2076733823,3,-0.46905002,10.88895,-0.51000005,1781186205401
2076733833,3,-0.49305,11.509951,-0.21105,1781186205409
2076733843,3,-0.26805001,11.674951,-0.165,1781186205420
2076733853,3,0.076050006,11.445001,-0.28305,1781186205431
2076733863,3,0.14295001,11.215051,-0.34995002,1781186205441
2076733873,3,-0.00405,11.088,-0.25395,1781186205452
2076733884,3,-0.16695,11.0140505,-0.16995001,1781186205460
2076733894,3,-0.36600003,10.96605,0.01305,1781186205470
2076733904,3,-0.43800002,10.885051,0.186,1781186205480
2076733914,3,-0.33900002,10.714951,0.231,1781186205490
2076733924,3,-0.14805001,10.753051,0.20700002,1781186205499
2076733934,3,-0.043050002,10.8820505,0.09900001,1781186205510
2076733944,3,-0.069000006,10.87695,-0.177,1781186205520
2076733954,3,-0.17895001,10.566001,-0.49095002,1781186205530
2076733964,3,-0.33,10.23795,-0.52395004,1781186205540
2076733974,3,-0.32700002,10.104,-0.49305,1781186205551
2076733984,3,-0.28695002,9.90795,-0.453,1781186205561
2076733994,3,-0.24795002,9.61305,-0.63195,1781186205570
2076734004,3,-0.28005,9.297001,-0.69405,1781186205581
2076734014,3,-0.30795002,9.087001,-0.72105,1781186205591
2076734025,3,-0.402,8.955001,-0.702,1781186205601
2076734035,3,-0.72300005,9.075001,-0.59595,1781186205611
2076734045,3,-1.182,9.514951,-0.35700002,1781186205621
2076734055,3,-1.3549501,9.508051,-0.117000006,1781186205631
2076734065,3,-1.5079501,9.469951,0.05595,1781186205641
2076734075,3,-1.64205,9.37905,0.10695001,1781186205651
2076734085,3,-1.8070501,9.360001,0.22605,1781186205661
2076734095,3,-2.0080502,9.42195,0.26700002,1781186205671
2076734105,3,-2.19705,9.649051,0.279,1781186205682
2076734115,3,-2.46105,10.080001,0.28095,1781186205692
2076734125,3,-2.667,10.264951,0.12105001,1781186205701
2076734135,3,-2.6209502,9.814051,0.0010500001,1781186205711
2076734145,3,-2.394,9.09105,-0.01905,1781186205722
2076734156,3,-2.3430002,8.44995,-0.22800002,1781186205732
2076734166,3,-2.3820002,8.224951,-0.36600003,1781186205741
2076734176,3,-2.6569502,8.47605,-0.12195001,1781186205753
2076734186,3,-2.9920502,9.280951,-0.12495001,1781186205762
2076734196,3,-3.2650502,10.07295,-0.11505,1781186205773
2076734206,3,-2.9950502,10.11795,-0.36405003,1781186205783
2076734216,3,-2.2810502,9.61095,-0.54105,1781186205792
2076734226,3,-1.9579501,9.55095,-0.70905006,1781186205802
2076734236,3,-1.7380501,9.75,-0.69705003,1781186205812
2076734246,3,-1.5490501,10.257001,-0.55095005,1781186205822
2076734256,3,-1.4100001,10.6050005,-0.47400004,1781186205832
2076734266,3,-1.0819501,10.65705,-0.40695003,1781186205842
2076734276,3,-0.684,10.375051,-0.61995006,1781186205852
2076734287,3,-0.41595003,10.07505,-0.67095006,1781186205865
2076734297,3,-0.18105,9.807,-0.59205,1781186205873
2076734307,3,-0.058950003,9.73305,-0.52905005,1781186205883
2076734317,3,-0.076050006,10.21395,-0.44295,1781186205893
2076734327,3,-0.14295001,10.663951,-0.46500003,1781186205903
2076734337,3,-0.016050002,10.52595,-0.66795003,1781186205913
2076734347,3,0.102000006,10.06095,-1.008,1781186205923
2076734357,3,0.064050004,9.77595,-1.128,1781186205934
2076734367,3,0.16995001,9.352051,-1.197,1781186205943
2076734377,3,0.22005,9.38595,-1.1040001,1781186205955
2076734387,3,0.079050004,9.967951,-1.02495,1781186205964
2076734397,3,-0.057000004,10.37205,-1.0870501,1781186205973
2076734407,3,0.0019500001,10.441951,-1.1010001,1781186205984
2076734417,3,0.033,10.36995,-1.07805,1781186205994
2076734428,3,-0.021000002,10.17105,-1.0890001,1781186206004
2076734438,3,-0.28005,10.129951,-0.91995007,1781186206015
2076734448,3,-0.42795002,10.36995,-0.79305005,1781186206025
2076734458,3,-0.52395004,10.59,-0.79305005,1781186206035
2076734468,3,-0.57900006,10.69995,-0.864,1781186206044
2076734478,3,-0.56205004,10.498951,-1.00605,1781186206056
2076734488,3,-0.507,9.903001,-1.04205,1781186206064
2076734498,3,-0.63900006,9.70905,-1.13505,1781186206074
2076734508,3,-0.91200006,10.000951,-0.92700005,1781186206084
2076734518,3,-1.01205,10.30305,-0.77805007,1781186206094
2076734528,3,-0.69900006,10.33605,-0.81705004,1781186206104
2076734538,3,-0.675,10.482,-0.97200006,1781186206114
2076734548,3,-0.78705,10.566001,-1.1179501,1781186206124
2076734559,3,-0.90705,10.521001,-1.0699501,1781186206135
2076734569,3,-1.0699501,10.533001,-0.78105,1781186206145
2076734579,3,-1.0309501,10.518001,-0.47400004,1781186206155
2076734589,3,-0.9480001,10.482,-0.24000001,1781186206165
2076734599,3,-0.80895007,10.33395,-0.22500001,1781186206175
2076734609,3,-0.71295005,10.132951,-0.39000002,1781186206185
2076734619,3,-0.79005,10.21395,-0.666,1781186206196
2076734629,3,-1.00695,10.273951,-0.81195,1781186206206
2076734639,3,-1.2760501,10.35795,-0.96495,1781186206219
2076734649,3,-1.455,10.272,-0.93405,1781186206226
2076734659,3,-1.422,9.9529505,-0.87195003,1781186206236
2076734669,3,-1.3980001,10.03005,-0.855,1781186206246
2076734679,3,-1.2709501,9.963,-0.58395004,1781186206257
2076734690,3,-0.9670501,9.489,-0.54405004,1781186206266
2076734700,3,-0.82800007,9.1060505,-0.30405003,1781186206276
2076734710,3,-0.84195006,9.427051,-0.22005,1781186206285
2076734720,3,-0.74595004,9.850051,-0.21795002,1781186206297
2076734730,3,-0.52905005,9.931951,-0.69195,1781186206306
2076734740,3,-0.53595,9.793051,-1.1689501,1781186206317
2076734750,3,-0.58395004,9.39795,-1.164,1781186206327
2076734760,3,-0.69405,9.003,-0.82905006,1781186206336
2076734770,3,-0.85395,8.874001,-0.57495004,1781186206346
2076734780,3,-0.84900004,8.62005,-0.38805002,1781186206356
2076734790,3,-0.90405005,9.024,-0.24195,1781186206366
2076734800,3,-1.2040501,10.236,-0.15105,1781186206376
2076734810,3,-1.125,11.038051,-0.40500003,1781186206387
2076734821,3,-0.897,10.944,-0.53400004,1781186206396
2076734831,3,-0.77505004,10.851001,-0.67095006,1781186206408
2076734841,3,-1.02705,11.12895,-0.558,1781186206416
2076734851,3,-1.149,11.071051,-0.546,1781186206428
2076734861,3,-1.3230001,11.248951,-0.63705003,1781186206438
2076734871,3,-1.3930501,11.538,-0.53595,1781186206447
2076734881,3,-1.4620501,11.75895,-0.606,1781186206458
2076734891,3,-1.4460001,11.899951,-0.66795003,1781186206469
2076734901,3,-1.1580001,11.442,-0.87600005,1781186206477
2076734911,3,-0.97905004,10.651951,-1.0320001,1781186206487
2076734921,3,-1.23195,10.317,-0.975,1781186206498
2076734931,3,-1.4980501,10.554001,-0.74700004,1781186206508
2076734941,3,-1.4980501,11.091001,-0.16305001,1781186206517
2076734951,3,-1.2709501,11.292001,-0.32295,1781186206527
2076734962,3,-1.1340001,11.373,-0.31095,1781186206538
2076734972,3,-0.86595005,10.97595,-0.74700004,1781186206548
2076734982,3,-0.708,10.854,-0.924,1781186206558
2076734992,3,-0.588,10.5060005,-1.1539501,1781186206568
2076735002,3,-0.51405,10.03905,-1.2379501,1781186206578
2076735012,3,-0.43500003,9.72105,-1.245,1781186206590
2076735022,3,-0.354,9.417001,-1.0339501,1781186206598
2076735032,3,-0.28395,9.196951,-0.85695004,1781186206608
2076735042,3,-0.246,9.07905,-0.94305,1781186206618
2076735052,3,-0.27,9.012,-0.95505005,1781186206629
2076735062,3,-0.22695,9.055051,-0.95100003,1781186206638
2076735072,3,-0.23895001,9.37905,-1.0180501,1781186206648
2076735082,3,-0.23895001,9.8550005,-0.77595,1781186206658
2076735093,3,-0.102000006,9.649051,-0.771,1781186206668
2076735103,3,-0.27495003,9.621,-0.69000006,1781186206679
2076735113,3,-0.40905002,9.75195,-0.46500003,1781186206689
2076735123,3,-0.28905,9.538951,-0.51705,1781186206699
2076735133,3,-0.37500003,9.40305,-0.41895002,1781186206709
2076735143,3,-0.48600003,9.252001,-0.56505,1781186206719
2076735153,3,-0.48795003,9.027,-0.84495,1781186206729
2076735163,3,-0.38505003,8.7300005,-0.97005004,1781186206740
2076735173,3,-0.38700002,8.401951,-1.17795,1781186206749
2076735183,3,-0.54495,8.184,-1.28295,1781186206760
2076735193,3,-0.76305,8.29395,-1.4080501,1781186206770
2076735203,3,-0.93105006,9.196951,-1.4490001,1781186206780
