icm4n607_acc,iven_sense,2026-05-28_21-22-17.484_Active 10 Pro
imuTimestamp,accuracy(more=better),acc_x[m/s^2],acc_y[m/s^2],acc_z[m/s^2],utcTimestamp(millis)
883069182,3,0.37095,0.693,9.910951,1779992540759
883069192,3,0.36795002,0.633,9.66195,1779992540769
883069202,3,0.35895002,0.71895003,9.70995,1779992540779
883069212,3,0.38505003,0.62505,9.87495,1779992540789
883069222,3,0.49995002,0.58500004,9.71205,1779992540800
883069232,3,0.58395004,0.51105005,9.760051,1779992540809
883069242,3,0.59295005,0.46500003,9.81,1779992540819
883069252,3,0.56205004,0.46005002,9.703051,1779992540832
883069262,3,0.72300005,0.36705002,9.946951,1779992540839
883069272,3,0.81405,0.23505001,9.868051,1779992540849
883069283,3,0.73005,0.25005,9.604051,1779992540859
883069293,3,0.79200006,0.11100001,9.798,1779992540869
883069303,3,0.90495,0.112950005,9.8220005,1779992540879
883069313,3,0.78495,0.09900001,9.757951,1779992540889
883069323,3,0.76305,0.010050001,9.66705,1779992540899
883069333,3,0.81600004,0.08205,9.63105,1779992540910
883069343,3,0.64095,0.072000004,9.846001,1779992540920
883069353,3,0.60795003,0.043950003,9.74295,1779992540929
883069363,3,0.57705003,0.14205001,9.772051,1779992540940
883069373,3,0.30600002,0.135,9.931951,1779992540950
883069383,3,0.423,0.076950006,9.925051,1779992540961
883069393,3,0.45195,0.10605001,9.79605,1779992540969
883069403,3,0.33495003,0.075,9.549001,1779992540981
883069413,3,0.36105,0.04095,9.66195,1779992540990
883069424,3,0.30600002,0.16305001,9.913051,1779992541000
883069434,3,0.282,0.112950005,9.955951,1779992541010
883069444,3,0.34905002,0.094050005,9.585,1779992541020
883069454,3,0.45900002,0.17805001,9.636001,1779992541030
883069464,3,0.43500003,0.14400001,9.84105,1779992541040
883069474,3,0.44700003,0.16305001,10.05195,1779992541050
883069484,3,0.53805,0.27600002,9.585,1779992541060
883069494,3,0.56205004,0.087000005,9.765,1779992541070
883069504,3,0.651,0.08205,9.868051,1779992541080
883069514,3,0.76605004,0.11100001,9.87705,1779992541091
883069524,3,0.74700004,0.01995,9.70005,1779992541101
883069534,3,0.73005,0.025050001,9.681001,1779992541112
883069544,3,0.87105006,0.094050005,9.817051,1779992541121
883069554,3,0.85905004,0.052950002,9.834001,1779992541131
883069565,3,0.73905003,0.10395,9.612,1779992541141
883069575,3,0.76305,0.19500001,9.670951,1779992541151
883069585,3,0.70095,0.19905001,9.786,1779992541161
883069595,3,0.61200005,0.321,9.83205,1779992541171
883069605,3,0.48600003,0.40005,9.96105,1779992541181
883069615,3,0.48105,0.37905002,9.86295,1779992541191
883069625,3,0.44700003,0.42900002,9.625951,1779992541201
883069635,3,0.52905005,0.45495003,9.691051,1779992541211
883069645,3,0.45705003,0.47700003,9.858001,1779992541221
883069655,3,0.19605,0.513,9.858001,1779992541231
883069665,3,0.39000002,0.56100005,9.68805,1779992541241
883069675,3,0.45705003,0.50100005,9.802951,1779992541251
883069685,3,0.342,0.582,9.715051,1779992541261
883069696,3,0.282,0.55095005,9.8560505,1779992541271
883069706,3,0.48795003,0.47895002,9.753,1779992541281
883069716,3,0.44700003,0.47895002,9.646951,1779992541291
883069726,3,0.50895,0.54195005,9.86295,1779992541302
883069736,3,0.51405,0.42405003,9.83205,1779992541312
883069746,3,0.531,0.37605003,9.67905,1779992541322
883069756,3,0.67695004,0.38805002,9.798,1779992541332
883069766,3,0.72705,0.29505002,9.943951,1779992541342
883069776,3,0.67005,0.25395,9.66195,1779992541352
883069786,3,0.708,0.22095,9.705001,1779992541362
883069796,3,0.81795,0.123,9.96405,1779992541373
883069806,3,0.74895006,0.112950005,9.80595,1779992541383
883069816,3,0.76605004,0.08400001,9.67605,1779992541393
883069826,3,0.735,0.027,9.75,1779992541403
883069837,3,0.70605004,0.08400001,9.715051,1779992541413
883069847,3,0.67200005,0.058050003,9.760051,1779992541423
883069857,3,0.55995005,0.058050003,9.67395,1779992541433
883069867,3,0.49305,0.09195001,9.681001,1779992541443
883069877,3,0.35595003,0.060000002,10.134001,1779992541453
883069887,3,0.38505003,0.07005,9.82005,1779992541463
883069897,3,0.42600003,0.015000001,9.73095,1779992541473
883069907,3,0.38505003,-0.02205,9.736051,1779992541483
883069917,3,0.342,0.015000001,9.583051,1779992541493
883069927,3,0.39900002,0.094050005,9.80595,1779992541503
883069937,3,0.186,0.027,10.134001,1779992541513
883069947,3,0.40695003,0.10605001,9.595051,1779992541524
883069957,3,0.43995002,0.112950005,9.613951,1779992541534
883069967,3,0.49800003,0.112950005,9.934951,1779992541544
883069978,3,0.52095,0.17295001,9.738001,1779992541554
883069988,3,0.591,0.21105,9.561001,1779992541563
883069998,3,0.483,0.13905,10.01595,1779992541574
883070008,3,0.67905,0.19005,9.93,1779992541584
883070018,3,0.67905,0.15900001,9.760051,1779992541594
883070028,3,0.744,0.16305001,9.66195,1779992541604
883070038,3,0.75105006,0.19005,9.745951,1779992541614
883070048,3,0.82605004,0.22095,9.772051,1779992541624
883070058,3,0.77805007,0.25695002,9.70695,1779992541634
883070068,3,0.735,0.34500003,9.670951,1779992541644
883070078,3,0.62895006,0.34095,9.762,1779992541654
883070088,3,0.60300004,0.50595003,9.898951,1779992541665
883070098,3,0.47100002,0.52995,9.96105,1779992541675
883070108,3,0.56700003,0.47505003,9.738001,1779992541692
883070119,3,0.48600003,0.51105005,9.588,1779992541695
883070129,3,0.49500003,0.54405004,9.67605,1779992541706
883070139,3,0.32505003,0.58995,10.066051,1779992541717
883070149,3,0.351,0.597,9.717,1779992541726
883070159,3,0.41805002,0.546,9.601951,1779992541735
883070169,3,0.36600003,0.58500004,9.798,1779992541745
883070179,3,0.30600002,0.50595003,9.913051,1779992541755
883070189,3,0.38295,0.48705003,9.703051,1779992541766
883070199,3,0.41400003,0.432,9.66705,1779992541777
883070209,3,0.34695002,0.42195,9.85305,1779992541785
883070219,3,0.46395,0.36900002,9.79605,1779992541795
883070229,3,0.48105,0.28095,9.73095,1779992541806
883070239,3,0.52605003,0.24705002,9.669001,1779992541817
883070249,3,0.588,0.21405001,9.83205,1779992541826
883070260,3,0.6,0.087000005,9.934951,1779992541836
883070270,3,0.64395005,-0.00795,9.657001,1779992541845
883070280,3,0.74205005,-0.030000001,9.817051,1779992541857
883070290,3,0.708,-0.135,9.8890505,1779992541866
883070300,3,0.79395,-0.109050006,9.67395,1779992541876
883070310,3,0.75795,-0.135,9.537001,1779992541887
883070320,3,0.74205005,-0.16605,9.765,1779992541897
883070330,3,0.69405,-0.08205,9.7240505,1779992541908
883070340,3,0.63900006,-0.01305,9.715051,1779992541918
883070350,3,0.49305,0.0049500004,9.703051,1779992541929
883070360,3,0.45195,0.120000005,9.943951,1779992541938
883070370,3,0.45900002,0.15405001,9.813001,1779992541948
883070380,3,0.39000002,0.15405001,9.772051,1779992541958
883070391,3,0.43500003,0.19695,9.633,1779992541967
883070401,3,0.36795002,0.171,9.658951,1779992541982
883070411,3,0.33495003,0.30705002,9.83895,1779992541988
883070421,3,0.26805001,0.29700002,9.86295,1779992541998
883070431,3,0.37800002,0.252,9.693001,1779992542009
883070441,3,0.36600003,0.29700002,9.63105,1779992542018
883070451,3,0.40905002,0.37395,9.7240505,1779992542030
883070461,3,0.34905002,0.28605002,9.92805,1779992542039
883070471,3,0.44205,0.34095,9.66195,1779992542051
883070481,3,0.50205004,0.29505002,9.66705,1779992542060
883070491,3,0.555,0.27795002,9.75,1779992542069
883070501,3,0.56505,0.33600003,9.83205,1779992542079
883070511,3,0.6,0.25005,9.802951,1779992542089
883070521,3,0.65805006,0.21795002,9.66405,1779992542099
883070532,3,0.68895006,0.24195,9.741,1779992542109
883070542,3,0.75600004,0.20700002,9.8220005,1779992542119
883070552,3,0.735,0.21105,9.703051,1779992542130
883070562,3,0.69105005,0.28095,9.633,1779992542139
883070572,3,0.72,0.24495001,9.74295,1779992542149
883070582,3,0.66495,0.28605002,9.736051,1779992542159
883070592,3,0.60300004,0.37905002,9.66705,1779992542169
883070602,3,0.51900005,0.40800002,9.78195,1779992542179
883070612,3,0.41595003,0.41700003,9.894,1779992542189
883070622,3,0.52605003,0.42405003,9.703051,1779992542200
883070632,3,0.43800002,0.42900002,9.65205,1779992542210
883070642,3,0.43800002,0.441,9.607051,1779992542220
883070652,3,0.25095,0.47700003,9.910951,1779992542230
883070662,3,0.37305,0.44805002,9.786,1779992542240
883070673,3,0.38295,0.44595003,9.6,1779992542250
883070683,3,0.351,0.47505003,9.64305,1779992542260
883070693,3,0.27195,0.381,9.916051,1779992542270
883070703,3,0.402,0.39795002,9.691051,1779992542280
883070713,3,0.41805002,0.32595003,9.65505,1779992542290
883070723,3,0.43500003,0.32595003,9.68295,1779992542300
883070733,3,0.37305,0.24495001,9.727051,1779992542311
883070743,3,0.28905,0.15900001,9.766951,1779992542320
883070753,3,0.141,0.064950004,9.75,1779992542331
883070763,3,-0.081,-0.00795,9.71205,1779992542341
883070773,3,-0.18900001,-0.051000003,9.769951,1779992542352
883070783,3,-0.124050006,-0.08505,9.762,1779992542361
883070793,3,-0.058950003,-0.08895,9.7890005,1779992542371
883070803,3,-0.052050002,-0.027,9.681001,1779992542381
883070814,3,0.021000002,-0.003,9.753,1779992542391
883070824,3,0.13095,0.034050003,9.70695,1779992542402
883070834,3,0.15300001,0.079950005,9.760051,1779992542411
883070844,3,0.17895001,0.108,9.777,1779992542421
883070854,3,0.23400001,0.13005,9.66195,1779992542432
883070864,3,0.354,0.156,9.777,1779992542443
883070874,3,0.27,0.12495001,9.753,1779992542452
883070884,3,0.29595003,0.17295001,9.604051,1779992542461
883070894,3,0.29205,0.22800002,9.80805,1779992542471
883070904,3,0.342,0.25905,9.82905,1779992542481
883070914,3,0.38505003,0.27600002,9.633,1779992542492
883070924,3,0.39195,0.28305,9.69495,1779992542502
883070934,3,0.43500003,0.29295,9.849001,1779992542514
883070945,3,0.51405,0.25395,9.71205,1779992542522
883070955,3,0.57405,0.28800002,9.70995,1779992542533
883070965,3,0.63405,0.21105,9.7890005,1779992542542
883070975,3,0.675,0.21795002,9.705001,1779992542552
883070985,3,0.67200005,0.23295002,9.715051,1779992542561
883070995,3,0.804,0.21105,9.868051,1779992542572
883071005,3,0.76995003,0.21105,9.68805,1779992542582
883071015,3,0.72705,0.26595002,9.754951,1779992542592
883071025,3,0.79395,0.28800002,9.68295,1779992542602
883071035,3,0.73200005,0.32595003,9.721951,1779992542612
883071045,3,0.62700003,0.36705002,9.71205,1779992542623
883071055,3,0.63900006,0.42000002,9.64995,1779992542632
883071065,3,0.51195,0.53895,9.86295,1779992542643
883071075,3,0.35895002,0.44400004,9.9199505,1779992542652
883071086,3,0.507,0.43395,9.625951,1779992542662
883071096,3,0.44700003,0.51495004,9.645,1779992542673
883071106,3,0.354,0.51495004,9.765,1779992542683
883071116,3,0.27,0.46995002,9.92805,1779992542693
883071126,3,0.37095,0.49095002,9.646951,1779992542704
883071136,3,0.33,0.41700003,9.65205,1779992542713
883071146,3,0.282,0.44595003,9.931951,1779992542723
883071156,3,0.38295,0.43905002,9.71895,1779992542734
883071166,3,0.37800002,0.333,9.66705,1779992542744
883071176,3,0.46605003,0.29505002,9.774,1779992542754
883071186,3,0.43005002,0.30705002,9.84405,1779992542763
883071196,3,0.50895,0.21795002,9.765,1779992542774
883071206,3,0.61695004,0.135,9.748051,1779992542784
883071216,3,0.62205005,0.06795,9.813001,1779992542794
883071227,3,0.64095,-0.051000003,9.753,1779992542804
883071237,3,0.78000003,-0.039,9.83895,1779992542814
883071247,3,0.75105006,-0.13005,9.858001,1779992542824
883071257,3,0.79005,-0.13005,9.64995,1779992542834
883071267,3,0.78495,-0.171,9.65205,1779992542844
883071277,3,0.85395,-0.123,9.745951,1779992542854
883071287,3,0.69405,-0.11100001,9.69495,1779992542864
883071297,3,0.67905,-0.01995,9.765,1779992542874
883071307,3,0.6,0.07005,9.71205,1779992542884
883071317,3,0.46605003,0.15405001,9.93,1779992542894
883071327,3,0.41595003,0.18705001,9.937051,1779992542904
883071337,3,0.48600003,0.22605,9.71895,1779992542915
883071347,3,0.41400003,0.21105,9.66195,1779992542925
883071357,3,0.43500003,0.252,9.65205,1779992542935
883071368,3,0.33,0.39600003,9.849001,1779992542945
883071378,3,0.26505002,0.28605002,9.97095,1779992542955
883071388,3,0.37500003,0.31395,9.657001,1779992542964
883071398,3,0.41400003,0.36900002,9.528001,1779992542975
883071408,3,0.46395,0.40500003,9.736051,1779992542986
883071418,3,0.07095,0.42195,10.210051,1779992542997
883071428,3,0.59595,0.35295,9.63105,1779992543007
883071438,3,0.54495,0.32895002,9.5779505,1779992543015
883071448,3,0.36105,0.35700002,10.057051,1779992543026
883071458,3,0.675,0.393,9.71895,1779992543038
883071468,3,0.66705,0.26595002,9.64995,1779992543046
883071478,3,0.73695004,0.28995,9.754951,1779992543058
883071488,3,0.588,0.27795002,9.898951,1779992543066
883071499,3,0.76605004,0.26205,9.74295,1779992543076
883071509,3,0.82800007,0.21405001,9.7890005,1779992543086
883071519,3,0.78000003,0.26205,9.636001,1779992543095
883071529,3,0.62700003,0.28095,9.906,1779992543106
883071539,3,0.67005,0.28995,9.858001,1779992543116
883071549,3,0.63900006,0.34305,9.825001,1779992543126
883071559,3,0.615,0.35295,9.7240505,1779992543137
883071569,3,0.6,0.34800002,9.658951,1779992543145
883071579,3,0.55695003,0.372,9.669001,1779992543163
883071589,3,0.46395,0.35700002,9.766951,1779992543166
883071599,3,0.36795002,0.432,9.882001,1779992543175
883071609,3,0.31800002,0.453,9.93,1779992543186
883071619,3,0.44205,0.34500003,9.67905,1779992543195
883071629,3,0.411,0.333,9.70995,1779992543207
883071640,3,0.351,0.39105,9.784051,1779992543219
883071650,3,0.26505002,0.333,9.987,1779992543227
883071660,3,0.47100002,0.29505002,9.669001,1779992543237
883071670,3,0.44205,0.20400001,9.729,1779992543247
883071680,3,0.51705,0.252,9.70995,1779992543256
883071690,3,0.48600003,0.21105,9.825001,1779992543267
883071700,3,0.51195,0.156,9.894,1779992543277
883071710,3,0.61695004,0.075,9.870001,1779992543288
883071720,3,0.64605004,-0.010050001,9.68805,1779992543298
883071730,3,0.71505004,-0.043950003,9.790951,1779992543309
883071740,3,0.804,-0.112950005,9.82695,1779992543317
883071750,3,0.83295006,-0.135,9.78195,1779992543328
883071760,3,0.77805007,-0.09900001,9.601951,1779992543338
883071770,3,0.80895007,-0.13005,9.70005,1779992543348
883071781,3,0.79695004,-0.064950004,9.861,1779992543358
883071791,3,0.67905,0.015000001,9.80595,1779992543367
883071801,3,0.61695004,0.043950003,9.703051,1779992543378
883071811,3,0.57900006,0.11595,9.727051,1779992543388
883071821,3,0.45900002,0.21405001,9.966001,1779992543398
883071831,3,0.44700003,0.28095,9.894,1779992543408
883071841,3,0.49800003,0.27105,9.70695,1779992543418
883071851,3,0.37995002,0.30900002,9.6,1779992543429
883071861,3,0.294,0.372,9.937051,1779992543439
883071871,3,0.42105,0.41205,9.913051,1779992543449
883071881,3,0.38505003,0.42405003,9.58005,1779992543459
883071891,3,0.282,0.46305,9.798,1779992543469
883071901,3,0.37800002,0.47895002,9.834001,1779992543479
883071911,3,0.45705003,0.42900002,9.7890005,1779992543488
883071922,3,0.39900002,0.47505003,9.727051,1779992543500
883071932,3,0.38700002,0.45495003,9.814951,1779992543509
883071942,3,0.51900005,0.41505003,9.778951,1779992543519
883071952,3,0.555,0.37905002,9.78195,1779992543531
883071962,3,0.591,0.41700003,9.81,1779992543539
883071972,3,0.54495,0.37605003,9.748051,1779992543558
883071982,3,0.63600004,0.29295,9.817051,1779992543560
883071992,3,0.71295005,0.26895002,9.858001,1779992543570
883072002,3,0.65805006,0.264,9.69795,1779992543580
883072012,3,0.66495,0.22095,9.727051,1779992543590
883072022,3,0.67905,0.21105,9.825001,1779992543600
883072032,3,0.66495,0.24705002,9.80805,1779992543610
883072042,3,0.555,0.22305001,9.84405,1779992543620
883072053,3,0.55005,0.24495001,9.7240505,1779992543631
883072063,3,0.54105,0.28305,9.784051,1779992543641
883072073,3,0.47805002,0.26595002,9.849001,1779992543651
883072083,3,0.40695003,0.28995,9.784051,1779992543660
883072093,3,0.411,0.28305,9.7240505,1779992543670
883072103,3,0.34395,0.27105,9.753,1779992543681
883072113,3,0.33900002,0.28800002,9.868051,1779992543691
883072123,3,0.33705002,0.264,9.7240505,1779992543700
883072133,3,0.24900001,0.23295002,9.729,1779992543710
883072143,3,0.26805001,0.22995001,9.837001,1779992543721
883072153,3,0.34395,0.20205002,9.721951,1779992543730
883072163,3,0.23895001,0.16095,9.8560505,1779992543741
883072173,3,0.29895002,0.18300001,9.75,1779992543751
883072183,3,0.35895002,0.16095,9.769951,1779992543762
883072194,3,0.38505003,0.09900001,9.813001,1779992543771
883072204,3,0.42600003,0.123,9.78195,1779992543781
883072214,3,0.43500003,0.064950004,9.760051,1779992543791
883072224,3,0.483,0.034050003,9.778951,1779992543802
883072234,3,0.58095,0.03705,9.766951,1779992543813
883072244,3,0.58095,-0.003,9.753,1779992543822
883072254,3,0.50205004,0.0010500001,9.83205,1779992543832
883072264,3,0.56700003,0.058050003,9.84105,1779992543843
883072274,3,0.66,0.034050003,9.70005,1779992543851
883072284,3,0.53595,0.11100001,9.784051,1779992543861
883072294,3,0.41400003,0.15105,9.892051,1779992543872
883072304,3,0.54795,0.15405001,9.693001,1779992543882
883072314,3,0.44505003,0.24495001,9.786,1779992543892
883072324,3,0.28905,0.32895002,9.916051,1779992543902
883072335,3,0.37305,0.34305,9.693001,1779992543912
883072345,3,0.30105,0.34305,9.784051,1779992543922
883072355,3,0.20295002,0.42405003,9.85095,1779992543932
883072365,3,0.27,0.42900002,9.748051,1779992543942
883072375,3,0.19305001,0.432,9.80595,1779992543952
883072385,3,0.16005,0.47895002,9.814951,1779992543962
883072395,3,0.18105,0.48195,9.834001,1779992543972
883072405,3,0.22200002,0.432,9.733951,1779992543984
883072415,3,0.22695,0.44805002,9.7240505,1779992543992
883072425,3,0.25800002,0.453,9.786,1779992544003
883072435,3,0.24405001,0.40500003,9.82695,1779992544012
883072445,3,0.31995,0.40800002,9.73095,1779992544022
883072455,3,0.38295,0.36495003,9.727051,1779992544033
883072465,3,0.37995002,0.321,9.774,1779992544043
883072476,3,0.41595003,0.33600003,9.846001,1779992544053
883072486,3,0.44505003,0.25395,9.892051,1779992544063
883072496,3,0.48600003,0.20895001,9.733951,1779992544073
883072506,3,0.56895,0.19005,9.65505,1779992544083
883072516,3,0.56895,0.13695,9.79395,1779992544093
883072526,3,0.49800003,0.16605,9.790951,1779992544103
883072536,3,0.50205004,0.17805001,9.777,1779992544113
883072546,3,0.51900005,0.13905,9.741,1779992544124
883072556,3,0.44205,0.16800001,9.760051,1779992544134
883072566,3,0.37095,0.20895001,9.86295,1779992544143
883072576,3,0.33195,0.20895001,9.870001,1779992544154
883072586,3,0.30600002,0.23295002,9.753,1779992544164
883072596,3,0.31995,0.23295002,9.765,1779992544175
883072606,3,0.27,0.20895001,9.769951,1779992544186
883072617,3,0.20805001,0.23805001,9.705001,1779992544194
883072627,3,0.24405001,0.21105,9.70005,1779992544205
883072637,3,0.24105,0.16800001,9.79395,1779992544217
883072647,3,0.16005,0.216,9.754951,1779992544226
883072657,3,0.18105,0.192,9.762,1779992544234
883072667,3,0.23400001,0.171,9.802951,1779992544245
883072677,3,0.22695,0.19500001,9.79395,1779992544255
883072687,3,0.21705002,0.18300001,9.86505,1779992544264
883072697,3,0.27195,0.17295001,9.86505,1779992544276
883072707,3,0.33,0.132,9.745951,1779992544284
883072717,3,0.43500003,0.052950002,9.705001,1779992544295
883072727,3,0.43995002,0.072000004,9.741,1779992544307
883072737,3,0.43005002,0.09195001,9.798,1779992544314
883072748,3,0.54795,0.02205,9.65505,1779992544326
883072758,3,0.55995005,0.063,9.721951,1779992544336
883072768,3,0.507,0.10095,9.766951,1779992544346
883072778,3,0.49305,0.10095,9.741,1779992544355
883072788,3,0.462,0.24195,9.892051,1779992544364
883072798,3,0.32505003,0.20400001,9.990001,1779992544374
883072808,3,0.44205,0.26895002,9.80805,1779992544384
883072818,3,0.38295,0.324,9.705001,1779992544394
883072828,3,0.36105,0.33600003,9.79395,1779992544404
883072838,3,0.33,0.37605003,9.858001,1779992544414
883072848,3,0.26505002,0.41700003,9.762,1779992544424
883072858,3,0.31800002,0.39600003,9.601951,1779992544434
883072868,3,0.354,0.38805002,9.595051,1779992544444
883072878,3,0.23895001,0.46695003,9.89595,1779992544455
883072889,3,0.19095,0.49095002,9.87495,1779992544468
883072899,3,0.29595003,0.40800002,9.589951,1779992544475
883072909,3,0.30600002,0.42195,9.68805,1779992544493
883072919,3,0.24105,0.46005002,9.94005,1779992544496
883072929,3,0.25995,0.42195,9.85305,1779992544505
883072939,3,0.35895002,0.34800002,9.597,1779992544518
883072949,3,0.402,0.34095,9.705001,1779992544525
883072959,3,0.36600003,0.34305,9.9199505,1779992544534
883072969,3,0.43005002,0.30900002,9.82905,1779992544544
883072979,3,0.51705,0.22095,9.69495,1779992544554
883072989,3,0.52095,0.171,9.703051,1779992544565
883072999,3,0.55005,0.16800001,9.81,1779992544574
883073009,3,0.58095,0.123,9.8220005,1779992544585
883073019,3,0.591,0.076950006,9.670951,1779992544594
883073030,3,0.60795003,0.076950006,9.71205,1779992544605
883073040,3,0.55995005,0.09900001,9.84105,1779992544615
883073050,3,0.531,0.10095,9.765,1779992544625
883073060,3,0.53295004,0.11805001,9.69495,1779992544635
883073070,3,0.47805002,0.13005,9.774,1779992544646
883073080,3,0.39900002,0.17805001,9.814951,1779992544655
883073090,3,0.40695003,0.19695,9.772051,1779992544666
883073100,3,0.39195,0.20205002,9.745951,1779992544676
883073110,3,0.32505003,0.22305001,9.738001,1779992544686
883073120,3,0.33195,0.21795002,9.777,1779992544696
883073130,3,0.33705002,0.21405001,9.741,1779992544707
883073140,3,0.32505003,0.22800002,9.762,1779992544716
883073150,3,0.31995,0.22095,9.79605,1779992544727
883073160,3,0.34695002,0.24000001,9.727051,1779992544737
883073171,3,0.38700002,0.22095,9.738001,1779992544747
883073181,3,0.39495003,0.21795002,9.784051,1779992544757
883073191,3,0.42105,0.23295002,9.774,1779992544766
883073201,3,0.46905002,0.21795002,9.738001,1779992544777
883073211,3,0.52905005,0.19500001,9.79605,1779992544787
883073221,3,0.54300004,0.18705001,9.802951,1779992544797
883073231,3,0.59595,0.15405001,9.681001,1779992544807
883073241,3,0.66495,0.135,9.703051,1779992544816
883073251,3,0.66705,0.15105,9.813001,1779992544827
883073261,3,0.66,0.132,9.766951,1779992544837
883073271,3,0.70095,0.135,9.67905,1779992544848
883073281,3,0.69900006,0.16095,9.69495,1779992544858
883073291,3,0.66495,0.18495001,9.7890005,1779992544868
883073302,3,0.63195,0.22995001,9.784051,1779992544878
883073312,3,0.58605003,0.28995,9.729,1779992544888
883073322,3,0.555,0.3,9.75,1779992544898
883073332,3,0.54495,0.35295,9.82695,1779992544908
883073342,3,0.52095,0.37605003,9.784051,1779992544918
883073352,3,0.46395,0.39105,9.703051,1779992544928
883073362,3,0.37095,0.42405003,9.89595,1779992544938
883073372,3,0.48105,0.44595003,9.817051,1779992544948
883073382,3,0.42795002,0.42405003,9.646951,1779992544958
883073392,3,0.43500003,0.42195,9.637951,1779992544968
883073402,3,0.39705002,0.45495003,9.79605,1779992544979
883073412,3,0.33705002,0.40995002,9.904051,1779992544989
883073422,3,0.46395,0.39600003,9.67395,1779992544999
883073432,3,0.45900002,0.36495003,9.66195,1779992545009
883073443,3,0.49995002,0.333,9.71895,1779992545019
883073453,3,0.45405003,0.333,9.87495,1779992545029
883073463,3,0.53595,0.29295,9.786,1779992545040
883073473,3,0.55995005,0.22800002,9.705001,1779992545050
883073483,3,0.64605004,0.18,9.784051,1779992545060
883073493,3,0.63600004,0.13005,9.784051,1779992545071
883073503,3,0.675,0.108,9.70995,1779992545081
883073513,3,0.69105005,0.075,9.765,1779992545090
883073523,3,0.71295005,0.060000002,9.762,1779992545100
883073533,3,0.70605004,0.048,9.73095,1779992545110
883073543,3,0.68895006,0.04095,9.736051,1779992545121
883073553,3,0.65805006,0.04605,9.66705,1779992545130
883073563,3,0.63900006,0.076950006,9.738001,1779992545141
883073573,3,0.57705003,0.096,9.78195,1779992545151
883073584,3,0.52395004,0.147,9.71895,1779992545161
883073594,3,0.46905002,0.21795002,9.81,1779992545171
883073604,3,0.402,0.19005,9.901051,1779992545182
883073614,3,0.45900002,0.21105,9.765,1779992545191
883073624,3,0.423,0.20700002,9.658951,1779992545201
883073634,3,0.423,0.23805001,9.67605,1779992545211
883073644,3,0.41595003,0.24705002,9.766951,1779992545221
883073654,3,0.32505003,0.24705002,9.882001,1779992545231
883073664,3,0.40905002,0.28605002,9.748051,1779992545241
883073674,3,0.44505003,0.27405003,9.64995,1779992545252
883073684,3,0.46905002,0.25395,9.766951,1779992545262
883073694,3,0.45705003,0.29295,9.774,1779992545272
883073704,3,0.47100002,0.27600002,9.7890005,1779992545281
883073714,3,0.55695003,0.252,9.71205,1779992545292
883073725,3,0.588,0.264,9.74295,1779992545302
883073735,3,0.63405,0.23505001,9.83205,1779992545312
883073745,3,0.62895006,0.19500001,9.703051,1779992545322
883073755,3,0.66705,0.22995001,9.69795,1779992545332
883073765,3,0.68895006,0.17805001,9.837001,1779992545341
883073775,3,0.70095,0.20700002,9.762,1779992545352
883073785,3,0.66705,0.24195,9.670951,1779992545362
883073795,3,0.67200005,0.21105,9.745951,1779992545372
883073805,3,0.65805006,0.27105,9.733951,1779992545382
883073815,3,0.615,0.321,9.75,1779992545392
883073825,3,0.56505,0.30195,9.70695,1779992545402
883073835,3,0.47595003,0.384,9.814951,1779992545412
883073845,3,0.46905002,0.381,9.83895,1779992545422
883073856,3,0.50205004,0.35295,9.745951,1779992545431
883073866,3,0.46905002,0.381,9.628051,1779992545442
883073876,3,0.43500003,0.40005,9.762,1779992545452
883073886,3,0.33195,0.36495003,9.910951,1779992545463
883073896,3,0.42600003,0.39600003,9.705001,1779992545473
883073906,3,0.41595003,0.34995002,9.625951,1779992545482
883073916,3,0.41805002,0.35295,9.777,1779992545491
883073926,3,0.38700002,0.36,9.78195,1779992545504
883073936,3,0.462,0.30705002,9.78195,1779992545513
883073946,3,0.48105,0.264,9.669001,1779992545523
883073956,3,0.51195,0.28305,9.69795,1779992545535
883073966,3,0.507,0.23295002,9.861,1779992545543
883073976,3,0.57405,0.19500001,9.802951,1779992545554
883073986,3,0.61200005,0.13695,9.70695,1779992545564
883073997,3,0.624,0.11100001,9.753,1779992545574
883074007,3,0.67905,0.072000004,9.741,1779992545584
883074017,3,0.70305,0.07005,9.82005,1779992545594
883074027,3,0.68205005,0.043950003,9.69495,1779992545604
883074037,3,0.71505004,0.048,9.67395,1779992545614
883074047,3,0.684,0.039,9.745951,1779992545624
883074057,3,0.66,0.08205,9.74295,1779992545634
883074067,3,0.61200005,0.09195001,9.691051,1779992545644
883074077,3,0.55695003,0.13695,9.75,1779992545654
883074087,3,0.51900005,0.21405001,9.814951,1779992545664
883074097,3,0.41805002,0.192,9.904051,1779992545674
883074107,3,0.48795003,0.25005,9.727051,1779992545685
883074117,3,0.43800002,0.22605,9.67605,1779992545694
883074127,3,0.45000002,0.25005,9.693001,1779992545705
883074138,3,0.39900002,0.312,9.8220005,1779992545715
883074148,3,0.34695002,0.28095,9.83895,1779992545725
883074158,3,0.40695003,0.29505002,9.66705,1779992545735
883074168,3,0.45195,0.30495003,9.715051,1779992545745
883074178,3,0.42105,0.31905,9.837001,1779992545755
883074188,3,0.43995002,0.321,9.738001,1779992545765
883074198,3,0.50205004,0.29700002,9.68595,1779992545775
883074208,3,0.50505,0.29295,9.784051,1779992545785
883074218,3,0.531,0.29295,9.79395,1779992545795
883074228,3,0.58095,0.3,9.760051,1779992545805
883074238,3,0.61695004,0.25395,9.760051,1779992545815
883074248,3,0.648,0.22995001,9.733951,1779992545825
883074258,3,0.64605004,0.22995001,9.769951,1779992545835
883074268,3,0.69105005,0.22995001,9.801001,1779992545845
883074279,3,0.67695004,0.216,9.73095,1779992545855
883074289,3,0.67200005,0.24195,9.727051,1779992545865
883074299,3,0.684,0.23295002,9.774,1779992545875
883074309,3,0.64095,0.25005,9.7240505,1779992545885
883074319,3,0.61005,0.30705002,9.7240505,1779992545895
883074329,3,0.55995005,0.312,9.70995,1779992545905
883074339,3,0.49995002,0.34800002,9.880051,1779992545916
883074349,3,0.47100002,0.36195,9.817051,1779992545925
883074359,3,0.48600003,0.32595003,9.68295,1779992545936
883074369,3,0.47100002,0.34995002,9.68295,1779992545945
883074379,3,0.43995002,0.35505003,9.8220005,1779992545955
883074389,3,0.36105,0.33795002,9.861,1779992545966
883074399,3,0.43005002,0.34995002,9.65505,1779992545976
883074410,3,0.42600003,0.28800002,9.705001,1779992545986
883074420,3,0.37800002,0.3,9.85095,1779992545996
883074430,3,0.44700003,0.29700002,9.753,1779992546006
883074440,3,0.462,0.26595002,9.70995,1779992546016
883074450,3,0.47400004,0.23805001,9.741,1779992546027
883074460,3,0.47805002,0.22800002,9.8220005,1779992546037
883074470,3,0.56700003,0.20205002,9.784051,1779992546048
883074480,3,0.57405,0.12705001,9.738001,1779992546056
883074490,3,0.60795003,0.10395,9.71895,1779992546068
883074500,3,0.64095,0.072000004,9.80595,1779992546079
883074510,3,0.67905,0.048,9.79395,1779992546087
883074520,3,0.67905,0.034050003,9.741,1779992546097
883074530,3,0.68700004,0.04605,9.715051,1779992546108
883074540,3,0.708,0.028950002,9.772051,1779992546117
883074551,3,0.69105005,0.052950002,9.736051,1779992546128
883074561,3,0.64605004,0.108,9.68295,1779992546138
883074571,3,0.61200005,0.10395,9.729,1779992546148
883074581,3,0.58395004,0.19500001,9.760051,1779992546158
883074591,3,0.49005002,0.27600002,9.86295,1779992546169
883074601,3,0.44505003,0.25695002,9.880051,1779992546178
883074611,3,0.48600003,0.25905,9.705001,1779992546189
883074621,3,0.46395,0.28095,9.68805,1779992546200
883074631,3,0.46905002,0.30705002,9.715051,1779992546209
883074641,3,0.39705002,0.34995002,9.837001,1779992546217
883074651,3,0.35895002,0.36195,9.790951,1779992546229
883074661,3,0.44505003,0.33105,9.70005,1779992546240
883074671,3,0.45900002,0.33105,9.745951,1779992546250
883074681,3,0.39495003,0.384,9.80595,1779992546260
883074692,3,0.44700003,0.372,9.772051,1779992546269
883074702,3,0.51405,0.34095,9.703051,1779992546279
883074712,3,0.51405,0.333,9.778951,1779992546289
883074722,3,0.51705,0.33600003,9.79605,1779992546299
883074732,3,0.58095,0.321,9.778951,1779992546310
883074742,3,0.61200005,0.3,9.741,1779992546320
883074752,3,0.65805006,0.27105,9.774,1779992546329
883074762,3,0.66,0.22995001,9.765,1779992546340
883074772,3,0.68205005,0.23295002,9.748051,1779992546350
883074782,3,0.69600004,0.19905001,9.778951,1779992546360
883074792,3,0.67695004,0.21405001,9.786,1779992546370
883074802,3,0.67905,0.22995001,9.748051,1779992546380
883074812,3,0.64605004,0.20400001,9.721951,1779992546390
883074822,3,0.62205005,0.252,9.754951,1779992546400
883074833,3,0.591,0.27105,9.748051,1779992546411
883074843,3,0.53595,0.27405003,9.79605,1779992546420
883074853,3,0.44505003,0.27105,9.84405,1779992546430
883074863,3,0.49995002,0.29700002,9.738001,1779992546441
883074873,3,0.47805002,0.27105,9.721951,1779992546450
883074883,3,0.46395,0.29295,9.729,1779992546460
883074893,3,0.37305,0.28605002,9.84105,1779992546471
883074903,3,0.43305,0.27600002,9.777,1779992546482
883074913,3,0.44505003,0.27105,9.705001,1779992546489
883074923,3,0.43500003,0.27600002,9.769951,1779992546501
883074933,3,0.41400003,0.24705002,9.801001,1779992546511
883074943,3,0.45900002,0.23805001,9.73095,1779992546521
883074953,3,0.49500003,0.21105,9.74295,1779992546531
883074964,3,0.50205004,0.20895001,9.786,1779992546541
883074974,3,0.52905005,0.156,9.802951,1779992546552
883074984,3,0.56505,0.096,9.78195,1779992546561
883074994,3,0.61200005,0.15405001,9.71205,1779992546572
883075004,3,0.63600004,0.051000003,9.901051,1779992546582
883075014,3,0.68895006,0.039,9.729,1779992546591
883075024,3,0.61005,0.108,9.595051,1779992546602
883075034,3,0.66,-0.063,9.97605,1779992546614
883075044,3,0.67695004,0.112950005,9.588,1779992546623
883075054,3,0.66705,0.16095,9.670951,1779992546633
883075064,3,0.63195,0.04095,9.849001,1779992546642
883075074,3,0.55005,0.22305001,9.70005,1779992546652
883075084,3,0.59595,0.28095,9.79395,1779992546662
883075094,3,0.41595003,0.20895001,9.92805,1779992546672
883075105,3,0.507,0.30705002,9.729,1779992546682
883075115,3,0.47805002,0.312,9.7240505,1779992546692
883075125,3,0.46605003,0.32595003,9.753,1779992546702
883075135,3,0.34905002,0.40500003,9.801001,1779992546712
883075145,3,0.44205,0.37605003,9.733951,1779992546722
883075155,3,0.43305,0.31395,9.70005,1779992546732
883075165,3,0.39000002,0.42705002,9.760051,1779992546742
883075175,3,0.402,0.42705002,9.802951,1779992546752
883075185,3,0.48105,0.37605003,9.68805,1779992546762
883075195,3,0.44700003,0.384,9.802951,1779992546772
883075205,3,0.45000002,0.40800002,9.75,1779992546782
883075215,3,0.54495,0.34305,9.85095,1779992546792
883075225,3,0.49995002,0.37905002,9.703051,1779992546805
883075235,3,0.59595,0.33105,9.70995,1779992546815
883075246,3,0.588,0.26595002,9.925051,1779992546823
883075256,3,0.63900006,0.30705002,9.754951,1779992546832
883075266,3,0.69405,0.22605,9.715051,1779992546843
883075276,3,0.72705,0.22305001,9.78195,1779992546853
883075286,3,0.70305,0.22095,9.762,1779992546863
883075296,3,0.76995003,0.17505,9.757951,1779992546873
883075306,3,0.744,0.18,9.705001,1779992546883
883075316,3,0.71805006,0.216,9.69795,1779992546894
883075326,3,0.75105006,0.20205002,9.78195,1779992546904
883075336,3,0.68205005,0.21105,9.754951,1779992546914
883075346,3,0.63195,0.24000001,9.738001,1779992546924
883075356,3,0.67005,0.21105,9.7890005,1779992546933
883075366,3,0.63900006,0.24195,9.786,1779992546944
883075376,3,0.59805006,0.22995001,9.83205,1779992546954
883075387,3,0.64095,0.21405001,9.754951,1779992546964
883075397,3,0.615,0.24195,9.754951,1779992546975
883075407,3,0.63600004,0.22305001,9.774,1779992546986
883075417,3,0.69405,0.16605,9.777,1779992546994
883075427,3,0.69600004,0.21405001,9.68595,1779992547004
883075437,3,0.70605004,0.18495001,9.727051,1779992547014
883075447,3,0.78705,0.13905,9.834001,1779992547024
883075457,3,0.79005,0.14205001,9.81,1779992547034
883075467,3,0.804,0.120000005,9.733951,1779992547044
883075477,3,0.897,0.08205,9.765,1779992547054
883075487,3,0.933,0.08400001,9.790951,1779992547064
883075497,3,0.95505005,0.063,9.736051,1779992547075
883075507,3,0.99600005,0.04095,9.68805,1779992547085
883075517,3,1.0189501,0.08895,9.727051,1779992547094
883075528,3,1.0170001,0.076950006,9.79605,1779992547105
883075538,3,1.04295,0.108,9.78195,1779992547115
883075548,3,1.0170001,0.171,9.736051,1779992547125
883075558,3,1.0030501,0.16305001,9.727051,1779992547135
883075568,3,1.04595,0.192,9.798,1779992547145
883075578,3,0.99300003,0.26595002,9.78195,1779992547155
883075588,3,0.93600005,0.28800002,9.693001,1779992547165
883075598,3,0.9480001,0.32895002,9.745951,1779992547176
883075608,3,0.93105006,0.38805002,9.8220005,1779992547186
883075618,3,0.88995004,0.39105,9.78195,1779992547197
883075628,3,0.90195006,0.40305,9.736051,1779992547206
883075638,3,0.89505005,0.43605003,9.738001,1779992547216
883075648,3,0.924,0.41205,9.784051,1779992547225
883075659,3,0.94005007,0.42900002,9.798,1779992547236
883075669,3,0.91905004,0.44595003,9.729,1779992547246
883075679,3,0.96000004,0.39795002,9.73095,1779992547257
883075689,3,1.005,0.38595003,9.84105,1779992547266
883075699,3,1.0360501,0.38595003,9.778951,1779992547277
883075709,3,1.0530001,0.34305,9.729,1779992547286
883075719,3,1.1149501,0.29505002,9.727051,1779992547296
883075729,3,1.16505,0.30495003,9.790951,1779992547306
883075739,3,1.1850001,0.24495001,9.753,1779992547317
883075749,3,1.1890501,0.21795002,9.715051,1779992547326
883075759,3,1.20105,0.24000001,9.745951,1779992547336
883075769,3,1.21605,0.19005,9.786,1779992547346
883075779,3,1.2210001,0.20205002,9.784051,1779992547355
883075789,3,1.1890501,0.21795002,9.736051,1779992547367
883075800,3,1.1730001,0.18300001,9.705001,1779992547377
883075810,3,1.1730001,0.18705001,9.784051,1779992547387
883075820,3,1.125,0.20895001,9.786,1779992547396
883075830,3,1.0699501,0.19905001,9.721951,1779992547406
883075840,3,1.041,0.21795002,9.75,1779992547417
883075850,3,1.029,0.22800002,9.790951,1779992547428
883075860,3,1.0030501,0.21105,9.78195,1779992547438
883075870,3,0.96000004,0.22800002,9.738001,1779992547447
883075880,3,0.95505005,0.24495001,9.733951,1779992547456
883075890,3,0.957,0.22095,9.777,1779992547467
883075900,3,0.96195006,0.22995001,9.772051,1779992547478
883075910,3,0.957,0.22095,9.741,1779992547487
883075920,3,0.96405005,0.18705001,9.738001,1779992547497
883075930,3,0.9979501,0.18495001,9.757951,1779992547508
883075941,3,1.02195,0.17805001,9.7890005,1779992547516
883075951,3,1.029,0.14400001,9.736051,1779992547528
883075961,3,1.0339501,0.14895001,9.71895,1779992547538
883075971,3,1.065,0.14895001,9.772051,1779992547548
883075981,3,1.08405,0.13695,9.762,1779992547558
883075991,3,1.06005,0.156,9.71895,1779992547568
883076001,3,1.0669501,0.16095,9.71895,1779992547578
883076011,3,1.07505,0.147,9.75,1779992547588
883076021,3,1.06305,0.16800001,9.760051,1779992547598
883076031,3,1.0339501,0.18300001,9.729,1779992547608
883076041,3,1.0170001,0.20205002,9.7240505,1779992547618
883076051,3,0.99600005,0.22800002,9.748051,1779992547628
883076061,3,0.97200006,0.23295002,9.762,1779992547638
883076071,3,0.93795,0.25905,9.717,1779992547648
883076082,3,0.90195006,0.29505002,9.71205,1779992547658
883076092,3,0.897,0.30900002,9.753,1779992547668
883076102,3,0.88095003,0.31695002,9.762,1779992547678
883076112,3,0.84900004,0.33795002,9.729,1779992547689
883076122,3,0.84000003,0.33600003,9.717,1779992547698
883076132,3,0.86100006,0.33795002,9.754951,1779992547709
883076142,3,0.84705,0.34095,9.748051,1779992547719
883076152,3,0.84705,0.34095,9.717,1779992547729
883076162,3,0.86595005,0.333,9.703051,1779992547739
883076172,3,0.86895007,0.321,9.736051,1779992547749
883076182,3,0.89295006,0.312,9.73095,1779992547759
883076192,3,0.90000004,0.29505002,9.703051,1779992547769
883076202,3,0.85200006,0.28605002,9.645,1779992547779
883076213,3,0.88500005,0.27795002,9.766951,1779992547789
883076223,3,0.90900004,0.3,9.64305,1779992547799
883076233,3,0.78000003,0.19695,9.846001,1779992547809
883076243,3,0.82305,0.30900002,9.5130005,1779992547819
883076253,3,0.82605004,0.264,9.80595,1779992547829
883076263,3,0.744,0.21795002,9.760051,1779992547840
883076273,3,0.68205005,0.30705002,9.670951,1779992547850
883076283,3,0.71295005,0.25905,9.5449505,1779992547860
883076293,3,0.62895006,0.21795002,9.868051,1779992547870
883076303,3,0.615,0.28605002,9.607051,1779992547880
883076313,3,0.61995006,0.27105,9.73095,1779992547891
883076323,3,0.52605003,0.21405001,9.633,1779992547901
883076333,3,0.51705,0.28305,9.67395,1779992547911
883076343,3,0.55305004,0.25695002,9.646951,1779992547921
883076354,3,0.45000002,0.22995001,9.80595,1779992547931
883076364,3,0.47805002,0.27405003,9.561001,1779992547943
883076374,3,0.483,0.20400001,9.777,1779992547951
883076384,3,0.462,0.17295001,9.66405,1779992547961
883076394,3,0.47805002,0.216,9.693001,1779992547971
883076404,3,0.50505,0.14895001,9.589951,1779992547981
883076414,3,0.49800003,0.120000005,9.766951,1779992547991
883076424,3,0.53805,0.15105,9.646951,1779992548001
883076434,3,0.53295004,0.08205,9.67905,1779992548011
883076444,3,0.531,0.079950005,9.63105,1779992548021
883076454,3,0.58395004,0.11805001,9.717,1779992548031
883076464,3,0.55995005,0.048,9.636001,1779992548041
883076474,3,0.58605003,0.09900001,9.66705,1779992548051
883076484,3,0.58095,0.094050005,9.595051,1779992548061
883076495,3,0.61200005,0.060000002,9.703051,1779992548071
883076505,3,0.55995005,0.12705001,9.592051,1779992548081
883076515,3,0.58605003,0.15105,9.670951,1779992548091
883076525,3,0.54105,0.13905,9.63105,1779992548102
883076535,3,0.50205004,0.22305001,9.637951,1779992548111
883076545,3,0.46395,0.25695002,9.772051,1779992548121
883076555,3,0.44700003,0.23295002,9.73095,1779992548132
883076565,3,0.43305,0.28800002,9.549001,1779992548142
883076575,3,0.49005002,0.30900002,9.64995,1779992548151
883076585,3,0.45000002,0.28095,9.67395,1779992548161
883076595,3,0.402,0.39105,9.66405,1779992548172
883076605,3,0.38505003,0.36900002,9.67905,1779992548182
883076615,3,0.423,0.324,9.69495,1779992548192
883076625,3,0.44700003,0.38805002,9.589951,1779992548202
883076636,3,0.39000002,0.40305,9.71895,1779992548212
883076646,3,0.39000002,0.36705002,9.71205,1779992548222
883076656,3,0.43305,0.381,9.56805,1779992548232
883076666,3,0.45195,0.384,9.727051,1779992548242
883076676,3,0.423,0.36495003,9.733951,1779992548252
883076686,3,0.43995002,0.37605003,9.588,1779992548262
883076696,3,0.45900002,0.35295,9.705001,1779992548273
883076706,3,0.46605003,0.32895002,9.73095,1779992548282
883076716,3,0.46605003,0.33600003,9.64995,1779992548293
883076726,3,0.46395,0.29700002,9.69795,1779992548303
883076736,3,0.47100002,0.28305,9.67905,1779992548313
883076746,3,0.46905002,0.28995,9.705001,1779992548323
883076756,3,0.46905002,0.27105,9.736051,1779992548334
883076767,3,0.44700003,0.25905,9.669001,1779992548343
883076777,3,0.42105,0.25695002,9.681001,1779992548353
883076787,3,0.43800002,0.22305001,9.7890005,1779992548364
883076797,3,0.44205,0.22095,9.68805,1779992548374
883076807,3,0.37800002,0.23295002,9.67395,1779992548384
883076817,3,0.35595003,0.20400001,9.754951,1779992548395
883076827,3,0.38505003,0.19500001,9.721951,1779992548404
883076837,3,0.35895002,0.20400001,9.705001,1779992548414
883076847,3,0.31305,0.19005,9.777,1779992548424
883076857,3,0.342,0.17505,9.670951,1779992548434
883076867,3,0.33900002,0.18300001,9.757951,1779992548444
883076877,3,0.31800002,0.14895001,9.79605,1779992548454
883076887,3,0.31995,0.156,9.71895,1779992548465
883076897,3,0.31995,0.14895001,9.721951,1779992548475
883076908,3,0.30795002,0.13695,9.83895,1779992548484
883076918,3,0.36795002,0.13905,9.729,1779992548495
883076928,3,0.34695002,0.13695,9.754951,1779992548505
883076938,3,0.34695002,0.132,9.790951,1779992548515
883076948,3,0.39705002,0.12705001,9.786,1779992548525
883076958,3,0.39705002,0.132,9.766951,1779992548536
883076968,3,0.37095,0.123,9.81,1779992548545
883076978,3,0.39900002,0.14205001,9.75,1779992548555
883076988,3,0.402,0.135,9.790951,1779992548564
883076998,3,0.38505003,0.16305001,9.84105,1779992548576
883077008,3,0.39195,0.18300001,9.784051,1779992548585
883077018,3,0.37500003,0.19695,9.784051,1779992548595
883077028,3,0.36105,0.21795002,9.873,1779992548606
883077038,3,0.37500003,0.23505001,9.79395,1779992548616
883077049,3,0.31095,0.25005,9.801001,1779992548626
883077059,3,0.30405003,0.28305,9.846001,1779992548637
883077069,3,0.31800002,0.30195,9.80805,1779992548645
883077079,3,0.25605002,0.321,9.86505,1779992548657
883077089,3,0.25095,0.34305,9.86295,1779992548666
883077099,3,0.26805001,0.34800002,9.784051,1779992548677
883077109,3,0.21705002,0.36495003,9.87495,1779992548686
883077119,3,0.24105,0.37905002,9.87705,1779992548697
883077129,3,0.25305,0.38595003,9.790951,1779992548706
883077139,3,0.21300001,0.38805002,9.8560505,1779992548716
883077149,3,0.24105,0.38805002,9.894,1779992548726
883077159,3,0.28395,0.39105,9.817051,1779992548737
883077169,3,0.22500001,0.384,9.894,1779992548747
883077179,3,0.26805001,0.37905002,9.861,1779992548757
883077190,3,0.31800002,0.35700002,9.83895,1779992548767
883077200,3,0.28695002,0.34500003,9.904051,1779992548776
883077210,3,0.31305,0.33600003,9.8869505,1779992548787
883077220,3,0.34695002,0.31905,9.81,1779992548795
883077230,3,0.31995,0.30195,9.922951,1779992548807
883077240,3,0.35895002,0.28605002,9.904051,1779992548818
883077250,3,0.38505003,0.264,9.834001,1779992548827
883077260,3,0.342,0.24000001,9.892051,1779992548838
883077270,3,0.37995002,0.22305001,9.913051,1779992548848
883077280,3,0.40905002,0.19905001,9.868051,1779992548857
883077290,3,0.35595003,0.18495001,9.901051,1779992548867
883077300,3,0.363,0.18,9.873,1779992548878
883077310,3,0.39900002,0.156,9.86505,1779992548888
883077321,3,0.351,0.14895001,9.916051,1779992548898
883077331,3,0.34395,0.13695,9.8890505,1779992548909
883077341,3,0.34905002,0.12495001,9.84405,1779992548918
883077351,3,0.31605002,0.11595,9.922951,1779992548928
883077361,3,0.32295,0.12495001,9.910951,1779992548938
883077371,3,0.32505003,0.11100001,9.846001,1779992548949
883077381,3,0.28695002,0.12495001,9.89595,1779992548958
883077391,3,0.30105,0.11805001,9.8890505,1779992548969
883077401,3,0.33,0.12495001,9.868051,1779992548979
883077411,3,0.29895002,0.14205001,9.906,1779992548989
883077421,3,0.31095,0.156,9.87705,1779992548999
883077431,3,0.33495003,0.15405001,9.84405,1779992549009
883077441,3,0.31995,0.18,9.922951,1779992549019
883077451,3,0.342,0.19905001,9.870001,1779992549030
883077462,3,0.363,0.20700002,9.82695,1779992549039
883077472,3,0.351,0.21795002,9.910951,1779992549050
883077482,3,0.39000002,0.22995001,9.8890505,1779992549060
883077492,3,0.402,0.23505001,9.837001,1779992549070
883077502,3,0.38505003,0.24705002,9.906,1779992549079
883077512,3,0.42105,0.25695002,9.84105,1779992549089
883077522,3,0.42795002,0.26595002,9.858001,1779992549099
883077532,3,0.37500003,0.27405003,9.922951,1779992549109
883077542,3,0.44700003,0.28800002,9.82695,1779992549119
883077552,3,0.43500003,0.31395,9.82905,1779992549130
883077562,3,0.411,0.324,9.931951,1779992549140
883077572,3,0.46905002,0.33795002,9.80805,1779992549150
883077582,3,0.462,0.35505003,9.8220005,1779992549160
883077592,3,0.44700003,0.37605003,9.880051,1779992549170
883077603,3,0.50205004,0.381,9.8220005,1779992549182
883077613,3,0.51195,0.38805002,9.8220005,1779992549190
883077623,3,0.48600003,0.39795002,9.85305,1779992549200
883077633,3,0.53295004,0.38805002,9.813001,1779992549211
883077643,3,0.55005,0.39600003,9.85305,1779992549220
883077653,3,0.53805,0.37905002,9.80805,1779992549230
883077663,3,0.555,0.36,9.868051,1779992549241
883077673,3,0.61995006,0.34995002,9.753,1779992549250
883077683,3,0.58395004,0.33105,9.885,1779992549261
883077693,3,0.60795003,0.3,9.80805,1779992549271
883077703,3,0.63900006,0.28305,9.83205,1779992549282
883077713,3,0.65595,0.27600002,9.753,1779992549291
883077723,3,0.64605004,0.22095,9.892051,1779992549301
883077733,3,0.67695004,0.19695,9.772051,1779992549311
883077744,3,0.67905,0.18,9.777,1779992549321
883077754,3,0.68700004,0.15405001,9.82695,1779992549331
883077764,3,0.65805006,0.14205001,9.825001,1779992549341
883077774,3,0.67695004,0.14400001,9.760051,1779992549351
883077784,3,0.651,0.12495001,9.798,1779992549361
883077794,3,0.62700003,0.14895001,9.748051,1779992549373
883077804,3,0.63405,0.13905,9.813001,1779992549381
883077814,3,0.57705003,0.13005,9.769951,1779992549391
883077824,3,0.55305004,0.15405001,9.778951,1779992549401
883077834,3,0.48600003,0.15405001,9.861,1779992549412
883077844,3,0.53805,0.16305001,9.84405,1779992549422
883077854,3,0.51405,0.15900001,9.7240505,1779992549432
883077864,3,0.531,0.15105,9.736051,1779992549442
883077875,3,0.50895,0.156,9.760051,1779992549452
883077885,3,0.47595003,0.19005,9.910951,1779992549462
883077895,3,0.51195,0.20895001,9.753,1779992549472
883077905,3,0.53595,0.19500001,9.774,1779992549486
883077915,3,0.54495,0.20700002,9.75,1779992549492
883077925,3,0.59295005,0.20700002,9.8220005,1779992549509
883077935,3,0.53805,0.20895001,9.82005,1779992549511
883077945,3,0.588,0.20400001,9.745951,1779992549523
883077955,3,0.648,0.19500001,9.813001,1779992549533
883077965,3,0.63405,0.192,9.8220005,1779992549541
883077975,3,0.65595,0.20895001,9.753,1779992549551
883077985,3,0.66705,0.20400001,9.79395,1779992549561
883077995,3,0.67200005,0.19905001,9.802951,1779992549572
883078005,3,0.675,0.22995001,9.82005,1779992549582
883078016,3,0.65595,0.21795002,9.786,1779992549592
883078026,3,0.64095,0.26895002,9.774,1779992549603
883078036,3,0.63600004,0.28605002,9.81,1779992549613
883078046,3,0.61995006,0.30195,9.8890505,1779992549622
883078056,3,0.59595,0.32895002,9.777,1779992549633
883078066,3,0.58605003,0.33600003,9.760051,1779992549643
883078076,3,0.56505,0.36705002,9.87495,1779992549653
883078086,3,0.55005,0.37905002,9.81,1779992549665
883078096,3,0.555,0.42900002,9.87495,1779992549673
883078106,3,0.58395004,0.42705002,9.628051,1779992549684
883078116,3,0.43800002,0.372,10.099951,1779992549694
883078126,3,0.56505,0.48195,9.589951,1779992549704
883078136,3,0.57705003,0.42405003,9.925051,1779992549714
883078146,3,0.531,0.36705002,9.8869505,1779992549724
883078157,3,0.54105,0.372,9.772051,1779992549734
883078167,3,0.62895006,0.25395,9.84405,1779992549744
883078177,3,0.60495,0.19500001,10.002001,1779992549754
883078187,3,0.61995006,0.22305001,9.607051,1779992549764
883078197,3,0.69600004,0.13695,10.030951,1779992549774
883078207,3,0.62205005,0.11805001,9.798,1779992549784
883078217,3,0.71505004,0.17505,9.868051,1779992549794
883078227,3,0.708,0.043950003,9.870001,1779992549804
883078237,3,0.65805006,0.11100001,9.892051,1779992549814
883078247,3,0.74700004,0.14205001,9.786,1779992549824
883078257,3,0.76605004,0.043950003,9.96105,1779992549834
883078267,3,0.66,0.11595,9.74295,1779992549846
883078277,3,0.75105006,0.11595,9.922951,1779992549855
883078287,3,0.69405,0.09900001,9.83205,1779992549865
883078298,3,0.61995006,0.22995001,9.955951,1779992549875
883078308,3,0.65805006,0.15405001,9.898951,1779992549885
883078318,3,0.62895006,0.17805001,9.892051,1779992549896
883078328,3,0.57405,0.27600002,9.880051,1779992549905
883078338,3,0.588,0.16095,9.943951,1779992549916
883078348,3,0.648,0.25005,9.85095,1779992549925
883078358,3,0.59295005,0.20400001,9.95895,1779992549936
883078368,3,0.63405,0.10395,9.9199505,1779992549946
883078378,3,0.64605004,0.16605,9.8560505,1779992549955
883078388,3,0.65595,0.18495001,9.8560505,1779992549965
883078398,3,0.67005,0.076950006,10.01895,1779992549977
883078408,3,0.66705,0.171,9.92805,1779992549985
883078418,3,0.684,0.23805001,9.741,1779992549995
883078429,3,0.67695004,0.18705001,9.978001,1779992550006
883078439,3,0.66705,0.27405003,10.033051,1779992550015
883078449,3,0.77295005,0.36,9.681001,1779992550026
883078459,3,0.64605004,0.27795002,10.09305,1779992550035
883078469,3,0.79395,0.36900002,9.817051,1779992550046
883078479,3,0.70095,0.36705002,10.086,1779992550057
883078489,3,0.73695004,0.35700002,9.79395,1779992550066
883078499,3,0.76305,0.41505003,10.066051,1779992550077
883078509,3,0.70095,0.35700002,9.78195,1779992550086
883078519,3,0.744,0.384,10.066051,1779992550097
883078529,3,0.675,0.35700002,9.78195,1779992550106
883078539,3,0.74205005,0.42900002,9.967951,1779992550116
883078549,3,0.59595,0.34095,9.83895,1779992550127
883078559,3,0.76305,0.43605003,10.014001,1779992550136
883078570,3,0.58095,0.393,9.80595,1779992550146
883078580,3,0.62205005,0.36705002,10.090051,1779992550157
883078590,3,0.64095,0.42000002,9.760051,1779992550167
883078600,3,0.59595,0.372,10.01895,1779992550176
883078610,3,0.62205005,0.36705002,9.801001,1779992550187
883078620,3,0.57705003,0.32595003,9.979951,1779992550196
883078630,3,0.59295005,0.34800002,9.86295,1779992550207
883078640,3,0.591,0.26895002,9.925051,1779992550217
883078650,3,0.61005,0.26205,9.87495,1779992550228
883078660,3,0.62700003,0.25395,9.906,1779992550237
883078670,3,0.58095,0.171,9.80595,1779992550248
883078680,3,0.675,0.23295002,9.9199505,1779992550258
883078690,3,0.64605004,0.18,9.89595,1779992550267
883078700,3,0.66300005,0.15405001,9.83895,1779992550278
883078711,3,0.68895006,0.13905,9.85305,1779992550288
883078721,3,0.69405,0.132,9.89595,1779992550298
883078731,3,0.71805006,0.123,9.790951,1779992550308
883078741,3,0.684,0.06795,9.9199505,1779992550316
883078751,3,0.72300005,0.10605001,9.753,1779992550328
883078761,3,0.67005,0.076950006,9.82905,1779992550339
883078771,3,0.67905,0.10395,9.825001,1779992550349
883078781,3,0.63600004,0.10395,9.85305,1779992550358
883078791,3,0.59805006,0.108,9.777,1779992550369
883078801,3,0.59805006,0.16800001,9.772051,1779992550378
883078811,3,0.555,0.16800001,9.86295,1779992550389
883078821,3,0.53295004,0.16095,9.817051,1779992550399
883078831,3,0.49995002,0.22800002,9.729,1779992550409
883078841,3,0.50205004,0.252,9.8220005,1779992550419
883078852,3,0.42105,0.18300001,9.798,1779992550429
883078862,3,0.43995002,0.252,9.8220005,1779992550439
883078872,3,0.47100002,0.31395,9.66705,1779992550449
883078882,3,0.44700003,0.252,9.777,1779992550459
883078892,3,0.43995002,0.26205,9.691051,1779992550470
883078902,3,0.43995002,0.312,9.754951,1779992550480
883078912,3,0.40395,0.27105,9.769951,1779992550490
883078922,3,0.46605003,0.27405003,9.681001,1779992550500
883078932,3,0.49005002,0.30195,9.691051,1779992550510
883078942,3,0.45405003,0.26205,9.753,1779992550521
883078952,3,0.46605003,0.29505002,9.64995,1779992550530
883078962,3,0.49500003,0.28995,9.753,1779992550540
883078972,3,0.51195,0.26595002,9.64305,1779992550551
883078982,3,0.51195,0.28095,9.646951,1779992550560
883078993,3,0.50895,0.28095,9.657001,1779992550571
883079003,3,0.483,0.31395,9.67605,1779992550580
883079013,3,0.47400004,0.31395,9.70005,1779992550591
883079023,3,0.49800003,0.312,9.640051,1779992550600
883079033,3,0.45405003,0.29505002,9.576,1779992550610
883079043,3,0.42105,0.32895002,9.669001,1779992550622
883079053,3,0.423,0.333,9.658951,1779992550632
883079063,3,0.402,0.30900002,9.583051,1779992550642
883079073,3,0.37995002,0.34095,9.657001,1779992550651
883079083,3,0.354,0.36900002,9.576,1779992550661
883079093,3,0.35595003,0.30195,9.69495,1779992550671
883079103,3,0.34395,0.27600002,9.49695,1779992550681
883079113,3,0.34395,0.29700002,9.67605,1779992550691
883079124,3,0.34695002,0.28305,9.56805,1779992550701
883079134,3,0.31095,0.252,9.645,1779992550711
883079144,3,0.35895002,0.24705002,9.493951,1779992550720
883079154,3,0.33195,0.20205002,9.681001,1779992550731
883079164,3,0.36795002,0.19905001,9.5449505,1779992550741
883079174,3,0.354,0.171,9.607051,1779992550751
883079184,3,0.37800002,0.13005,9.52305,1779992550761
883079194,3,0.411,0.112950005,9.637951,1779992550771
883079204,3,0.43005002,0.08895,9.55395,1779992550781
883079214,3,0.423,0.06795,9.604051,1779992550791
883079224,3,0.43500003,0.05595,9.53295,1779992550801
883079234,3,0.43995002,0.058050003,9.597,1779992550811
883079244,3,0.45000002,0.05595,9.588,1779992550821
883079254,3,0.41805002,0.072000004,9.56595,1779992550831
883079265,3,0.42105,0.08205,9.53505,1779992550842
883079275,3,0.402,0.11100001,9.640051,1779992550852
883079285,3,0.40395,0.147,9.571051,1779992550862
883079295,3,0.37995002,0.16800001,9.588,1779992550872
883079305,3,0.342,0.19500001,9.5449505,1779992550882
883079315,3,0.32505003,0.23295002,9.63105,1779992550892
883079325,3,0.32505003,0.25905,9.604051,1779992550908
883079335,3,0.294,0.26205,9.604051,1779992550913
883079345,3,0.27495003,0.29295,9.588,1779992550921
883079355,3,0.29205,0.30705002,9.604051,1779992550932
883079365,3,0.282,0.31395,9.633,1779992550942
883079375,3,0.28695002,0.312,9.607051,1779992550953
883079385,3,0.28005,0.33600003,9.573001,1779992550963
883079395,3,0.28395,0.33795002,9.657001,1779992550974
883079406,3,0.31605002,0.32895002,9.63105,1779992550984
883079416,3,0.30600002,0.34800002,9.64305,1779992550993
883079426,3,0.31095,0.33105,9.640051,1779992551003
883079436,3,0.33705002,0.34995002,9.624001,1779992551012
883079446,3,0.34395,0.34305,9.68595,1779992551024
883079456,3,0.35895002,0.33105,9.669001,1779992551033
883079466,3,0.37500003,0.32895002,9.61905,1779992551043
883079476,3,0.35895002,0.33105,9.703051,1779992551053
883079486,3,0.39900002,0.31395,9.69495,1779992551063
883079496,3,0.40395,0.321,9.69795,1779992551074
883079506,3,0.38505003,0.31695002,9.68805,1779992551084
883079516,3,0.37995002,0.30705002,9.727051,1779992551094
883079526,3,0.40395,0.30495003,9.7240505,1779992551104
883079536,3,0.38295,0.3,9.733951,1779992551114
883079547,3,0.35595003,0.28800002,9.7240505,1779992551124
883079557,3,0.37095,0.27795002,9.73095,1779992551134
883079567,3,0.363,0.28095,9.772051,1779992551144
883079577,3,0.33900002,0.264,9.774,1779992551154
883079587,3,0.33705002,0.252,9.73095,1779992551164
883079597,3,0.33705002,0.23805001,9.774,1779992551174
883079607,3,0.342,0.22095,9.79605,1779992551184
883079617,3,0.33195,0.21795002,9.790951,1779992551196
883079627,3,0.32295,0.20400001,9.80595,1779992551206
883079637,3,0.33195,0.19695,9.81,1779992551214
883079647,3,0.34905002,0.17805001,9.84105,1779992551224
883079657,3,0.37305,0.16095,9.82695,1779992551235
883079667,3,0.36795002,0.14895001,9.83895,1779992551245
883079678,3,0.37305,0.14205001,9.8220005,1779992551256
883079688,3,0.39495003,0.135,9.87705,1779992551265
883079698,3,0.43005002,0.11805001,9.861,1779992551275
883079708,3,0.423,0.12495001,9.868051,1779992551286
883079718,3,0.43500003,0.13005,9.85305,1779992551297
883079728,3,0.47400004,0.11805001,9.89595,1779992551305
883079738,3,0.47400004,0.11595,9.8890505,1779992551315
883079748,3,0.46605003,0.12495001,9.904051,1779992551326
883079758,3,0.49800003,0.14400001,9.892051,1779992551335
883079768,3,0.48600003,0.16605,9.906,1779992551346
883079778,3,0.49305,0.18705001,9.918,1779992551355
883079788,3,0.483,0.19500001,9.9199505,1779992551365
883079798,3,0.48105,0.21105,9.916051,1779992551375
883079808,3,0.47400004,0.24000001,9.955951,1779992551385
883079819,3,0.46605003,0.27405003,9.95895,1779992551395
883079829,3,0.46905002,0.28305,9.934951,1779992551405
883079839,3,0.43005002,0.30195,9.949051,1779992551419
883079849,3,0.44700003,0.30195,9.949051,1779992551427
883079859,3,0.46605003,0.324,9.93,1779992551437
883079869,3,0.42795002,0.324,9.979951,1779992551446
883079879,3,0.45705003,0.32895002,9.949051,1779992551456
883079889,3,0.46395,0.34995002,9.934951,1779992551466
883079899,3,0.43995002,0.34800002,9.990001,1779992551475
883079909,3,0.48105,0.33795002,9.954,1779992551487
883079919,3,0.49500003,0.34305,9.943951,1779992551496
883079929,3,0.47100002,0.34800002,9.999001,1779992551506
883079939,3,0.51195,0.34305,9.97095,1779992551516
883079949,3,0.531,0.33795002,9.966001,1779992551525
883079960,3,0.507,0.34305,9.987,1779992551535
883079970,3,0.52905005,0.324,9.97305,1779992551545
883079980,3,0.56505,0.31905,9.943951,1779992551558
883079990,3,0.54495,0.30495003,10.002001,1779992551568
883080000,3,0.56505,0.3,9.97095,1779992551576
883080010,3,0.58395004,0.27795002,9.95205,1779992551588
883080020,3,0.56700003,0.28605002,9.96405,1779992551597
883080030,3,0.56505,0.26205,9.99495,1779992551607
883080040,3,0.57405,0.252,9.942,1779992551616
883080050,3,0.56205004,0.252,9.96105,1779992551629
883080060,3,0.55305004,0.23505001,9.979951,1779992551638
883080070,3,0.54795,0.22095,9.978001,1779992551648
883080080,3,0.54300004,0.21795002,9.918,1779992551658
883080090,3,0.52605003,0.20895001,9.96405,1779992551668
883080101,3,0.52095,0.192,9.97605,1779992551678
883080111,3,0.51405,0.16605,9.931951,1779992551688
883080121,3,0.51900005,0.171,9.95205,1779992551698
883080131,3,0.49995002,0.14400001,9.934951,1779992551708
883080141,3,0.507,0.13695,9.96405,1779992551717
883080151,3,0.50895,0.13905,9.904051,1779992551728
883080161,3,0.50505,0.147,9.898951,1779992551739
883080171,3,0.51195,0.10605001,9.966001,1779992551748
883080181,3,0.52395004,0.15105,9.86505,1779992551758
883080191,3,0.52395004,0.123,9.955951,1779992551769
883080201,3,0.52095,0.16095,9.892051,1779992551779
883080211,3,0.51900005,0.15900001,9.925051,1779992551789
883080221,3,0.57195,0.16800001,9.861,1779992551799
883080232,3,0.53595,0.18300001,9.82905,1779992551809
883080242,3,0.56205004,0.19905001,9.94005,1779992551819
883080252,3,0.59295005,0.22305001,9.861,1779992551829
883080262,3,0.58095,0.20205002,9.892051,1779992551841
883080272,3,0.57900006,0.22605,9.861,1779992551849
883080282,3,0.58095,0.25695002,9.86295,1779992551859
883080292,3,0.59595,0.28800002,9.89595,1779992551869
883080302,3,0.58605003,0.26205,9.825001,1779992551879
883080312,3,0.55305004,0.28995,9.83895,1779992551889
883080322,3,0.57405,0.30705002,9.8560505,1779992551900
883080332,3,0.61005,0.33600003,9.834001,1779992551910
883080342,3,0.56205004,0.29295,9.79395,1779992551920
883080352,3,0.53805,0.32595003,9.882001,1779992551930
883080362,3,0.58095,0.33795002,9.80805,1779992551940
883080373,3,0.58605003,0.33600003,9.82905,1779992551950
883080383,3,0.55695003,0.33795002,9.84105,1779992551960
883080393,3,0.56505,0.32595003,9.79605,1779992551970
883080403,3,0.57705003,0.321,9.7890005,1779992551981
883080413,3,0.588,0.32595003,9.84405,1779992551994
883080423,3,0.55695003,0.32595003,9.774,1779992552000
883080433,3,0.591,0.31905,9.78195,1779992552010
883080443,3,0.61005,0.30195,9.772051,1779992552021
883080453,3,0.60300004,0.27795002,9.858001,1779992552030
883080463,3,0.61200005,0.28095,9.762,1779992552041
883080473,3,0.59805006,0.26595002,9.75,1779992552051
883080483,3,0.61695004,0.24495001,9.814951,1779992552061
883080493,3,0.66,0.21795002,9.748051,1779992552071
883080503,3,0.624,0.20205002,9.83205,1779992552081
883080514,3,0.64095,0.20400001,9.738001,1779992552091
883080524,3,0.64095,0.19695,9.73095,1779992552101
883080534,3,0.63195,0.19500001,9.85305,1779992552111
883080544,3,0.648,0.15105,9.762,1779992552121
883080554,3,0.63900006,0.17805001,9.762,1779992552131
883080564,3,0.62205005,0.147,9.762,1779992552142
883080574,3,0.65295005,0.15900001,9.774,1779992552152
883080584,3,0.61695004,0.16095,9.772051,1779992552161
883080594,3,0.62895006,0.15900001,9.765,1779992552171
883080604,3,0.62895006,0.16305001,9.748051,1779992552182
883080614,3,0.60795003,0.18300001,9.85305,1779992552193
883080624,3,0.60795003,0.192,9.765,1779992552203
883080634,3,0.61200005,0.18495001,9.769951,1779992552211
883080644,3,0.624,0.20205002,9.757951,1779992552222
883080655,3,0.624,0.20700002,9.80805,1779992552232
883080665,3,0.624,0.22800002,9.786,1779992552242
883080675,3,0.61200005,0.20895001,9.766951,1779992552252
883080685,3,0.64395005,0.19905001,9.7890005,1779992552261
883080695,3,0.651,0.22800002,9.814951,1779992552271
883080705,3,0.66300005,0.22095,9.79605,1779992552282
883080715,3,0.648,0.22605,9.766951,1779992552292
883080725,3,0.675,0.24195,9.80595,1779992552302
883080735,3,0.67695004,0.24705002,9.84105,1779992552313
883080745,3,0.684,0.25005,9.81,1779992552322
883080755,3,0.68205005,0.264,9.802951,1779992552332
883080765,3,0.69405,0.26895002,9.80595,1779992552342
883080775,3,0.69105005,0.25905,9.86295,1779992552352
883080786,3,0.69405,0.28800002,9.834001,1779992552363
883080796,3,0.67905,0.29700002,9.80805,1779992552373
883080806,3,0.67005,0.30495003,9.83205,1779992552383
883080816,3,0.648,0.31695002,9.906,1779992552393
883080826,3,0.65805006,0.33105,9.817051,1779992552403
883080836,3,0.648,0.333,9.83895,1779992552412
883080846,3,0.61200005,0.34095,9.87705,1779992552423
883080856,3,0.624,0.33795002,9.882001,1779992552433
883080866,3,0.624,0.34500003,9.870001,1779992552443
883080876,3,0.59295005,0.35295,9.898951,1779992552453
883080886,3,0.61005,0.34800002,9.873,1779992552463
883080896,3,0.6,0.32595003,9.906,1779992552474
883080906,3,0.58605003,0.324,9.898951,1779992552485
883080916,3,0.57405,0.30705002,9.885,1779992552494
883080927,3,0.58395004,0.30705002,9.901051,1779992552504
883080937,3,0.58605003,0.29700002,9.942,1779992552514
883080947,3,0.58605003,0.27795002,9.916051,1779992552525
883080957,3,0.58605003,0.252,9.93,1779992552535
883080967,3,0.60300004,0.25005,9.925051,1779992552543
883080977,3,0.60495,0.20895001,9.943951,1779992552554
883080987,3,0.59295005,0.19005,9.949051,1779992552564
883080997,3,0.60495,0.17505,9.943951,1779992552574
883081007,3,0.60495,0.16305001,9.931951,1779992552584
883081017,3,0.60795003,0.13905,9.97095,1779992552593
883081027,3,0.6,0.14400001,9.966001,1779992552603
883081037,3,0.6,0.13905,9.949051,1779992552615
883081047,3,0.588,0.12495001,9.97095,1779992552624
883081057,3,0.588,0.13005,9.990001,1779992552635
883081068,3,0.56700003,0.13695,9.97095,1779992552646
883081078,3,0.56205004,0.147,9.978001,1779992552655
883081088,3,0.54495,0.16605,9.990001,1779992552665
883081098,3,0.54300004,0.18,9.98295,1779992552674
883081108,3,0.53295004,0.19500001,9.96405,1779992552686
883081118,3,0.51195,0.21105,9.98295,1779992552695
883081128,3,0.51900005,0.20700002,9.98295,1779992552705
883081138,3,0.52095,0.22095,9.999001,1779992552715
883081148,3,0.50895,0.23505001,10.002001,1779992552725
883081158,3,0.50205004,0.23505001,9.97605,1779992552735
883081168,3,0.51405,0.264,9.990001,1779992552745
883081178,3,0.53595,0.252,9.97605,1779992552755
883081188,3,0.52095,0.24705002,10.01895,1779992552765
883081198,3,0.53595,0.25695002,9.946951,1779992552776
883081209,3,0.53805,0.26205,9.98505,1779992552785
883081219,3,0.555,0.26205,9.99195,1779992552797
883081229,3,0.56895,0.26595002,9.99195,1779992552806
883081239,3,0.58605003,0.26595002,9.967951,1779992552816
883081249,3,0.58395004,0.26895002,9.954,1779992552826
883081259,3,0.57900006,0.28605002,9.967951,1779992552837
883081269,3,0.58605003,0.3,9.98505,1779992552847
883081279,3,0.588,0.3,9.922951,1779992552855
883081289,3,0.54495,0.33105,9.97095,1779992552866
883081299,3,0.56505,0.333,9.955951,1779992552875
883081309,3,0.57405,0.34995002,9.92805,1779992552887
883081319,3,0.53295004,0.34800002,9.96105,1779992552897
883081329,3,0.52605003,0.36,9.946951,1779992552907
883081340,3,0.53805,0.35700002,9.89595,1779992552917
883081350,3,0.50505,0.35505003,9.949051,1779992552927
883081360,3,0.49500003,0.34095,9.931951,1779992552937
883081370,3,0.49995002,0.333,9.89595,1779992552946
883081380,3,0.47805002,0.31695002,9.910951,1779992552955
883081390,3,0.47400004,0.30495003,9.925051,1779992552967
883081400,3,0.48105,0.29700002,9.87495,1779992552977
883081410,3,0.45705003,0.28995,9.894,1779992552988
883081420,3,0.45405003,0.28305,9.89595,1779992552998
883081430,3,0.47100002,0.264,9.870001,1779992553008
883081440,3,0.45195,0.25905,9.868051,1779992553018
883081450,3,0.44700003,0.23295002,9.86295,1779992553028
883081460,3,0.46605003,0.21105,9.813001,1779992553038
883081470,3,0.46395,0.19695,9.86505,1779992553048
883081481,3,0.45900002,0.17805001,9.84405,1779992553058
883081491,3,0.47400004,0.15900001,9.798,1779992553068
883081501,3,0.45705003,0.14205001,9.817051,1779992553078
883081511,3,0.46605003,0.135,9.83205,1779992553088
883081521,3,0.46905002,0.123,9.762,1779992553098
883081531,3,0.47100002,0.112950005,9.7890005,1779992553108
883081541,3,0.462,0.112950005,9.78195,1779992553118
883081551,3,0.45705003,0.11805001,9.765,1779992553128
883081561,3,0.44505003,0.11805001,9.73095,1779992553138
883081571,3,0.44205,0.135,9.745951,1779992553149
883081581,3,0.43800002,0.13695,9.760051,1779992553159
883081591,3,0.43305,0.14895001,9.703051,1779992553169
883081601,3,0.40395,0.156,9.741,1779992553179
883081611,3,0.40905002,0.17805001,9.71895,1779992553189
883081622,3,0.39900002,0.18705001,9.68805,1779992553200
883081632,3,0.38295,0.192,9.68805,1779992553209
883081642,3,0.38505003,0.20205002,9.67605,1779992553219
883081652,3,0.39000002,0.22305001,9.66195,1779992553229
883081662,3,0.36795002,0.23295002,9.693001,1779992553239
883081672,3,0.37995002,0.24495001,9.64995,1779992553248
883081682,3,0.39195,0.252,9.621,1779992553260
883081692,3,0.37095,0.26895002,9.66195,1779992553270
883081702,3,0.39900002,0.27600002,9.64305,1779992553280
883081712,3,0.39900002,0.28095,9.63105,1779992553290
883081722,3,0.39000002,0.28605002,9.621,1779992553300
883081732,3,0.40395,0.30495003,9.628051,1779992553310
883081742,3,0.43005002,0.30900002,9.604051,1779992553320
883081752,3,0.41805002,0.31905,9.621,1779992553330
883081763,3,0.41595003,0.31695002,9.589951,1779992553340
883081773,3,0.42105,0.31395,9.58005,1779992553350
883081783,3,0.41400003,0.31905,9.607051,1779992553360
883081793,3,0.41595003,0.33105,9.597,1779992553370
883081803,3,0.42105,0.33600003,9.54705,1779992553380
883081813,3,0.402,0.33105,9.592051,1779992553390
883081823,3,0.39900002,0.333,9.573001,1779992553400
883081833,3,0.38700002,0.321,9.537001,1779992553410
883081843,3,0.38505003,0.33600003,9.621,1779992553421
883081853,3,0.39000002,0.33105,9.549001,1779992553431
883081863,3,0.33900002,0.31905,9.6,1779992553441
883081873,3,0.37095,0.3,9.528001,1779992553451
883081883,3,0.36600003,0.30495003,9.528001,1779992553461
883081894,3,0.34695002,0.28800002,9.612,1779992553471
883081904,3,0.36795002,0.27795002,9.516001,1779992553481
883081914,3,0.34395,0.26595002,9.576,1779992553491
883081924,3,0.33900002,0.24195,9.556951,1779992553501
883081934,3,0.37095,0.23505001,9.52995,1779992553511
883081944,3,0.35595003,0.22995001,9.58005,1779992553521
883081954,3,0.36105,0.19905001,9.58005,1779992553531
883081964,3,0.38295,0.19005,9.537001,1779992553541
883081974,3,0.39000002,0.18705001,9.561001,1779992553552
883081984,3,0.38295,0.16800001,9.588,1779992553562
883081994,3,0.40695003,0.16605,9.55395,1779992553572
883082004,3,0.39900002,0.13905,9.53295,1779992553582
883082014,3,0.39195,0.132,9.621,1779992553592
883082024,3,0.43005002,0.12705001,9.58005,1779992553602
883082035,3,0.41400003,0.135,9.556951,1779992553612
883082045,3,0.40395,0.135,9.612,1779992553622
883082055,3,0.41805002,0.14205001,9.609,1779992553632
883082065,3,0.40905002,0.14895001,9.585,1779992553643
883082075,3,0.39705002,0.156,9.616051,1779992553652
883082085,3,0.38295,0.17505,9.616051,1779992553662
883082095,3,0.38295,0.192,9.607051,1779992553672
883082105,3,0.37800002,0.20700002,9.645,1779992553682
883082115,3,0.37305,0.22995001,9.646951,1779992553692
883082125,3,0.36795002,0.24495001,9.621,1779992553702
883082135,3,0.34395,0.26595002,9.67395,1779992553712
883082145,3,0.36795002,0.28605002,9.657001,1779992553722
883082155,3,0.363,0.29505002,9.63105,1779992553732
883082165,3,0.35595003,0.312,9.70995,1779992553742
883082176,3,0.402,0.31395,9.67395,1779992553752
883082186,3,0.36795002,0.32595003,9.66705,1779992553763
883082196,3,0.34905002,0.32595003,9.736051,1779992553773
883082206,3,0.39495003,0.324,9.68295,1779992553783
883082216,3,0.40695003,0.31395,9.71895,1779992553793
883082226,3,0.37995002,0.321,9.757951,1779992553804
883082236,3,0.41595003,0.32895002,9.721951,1779992553813
883082246,3,0.41400003,0.30705002,9.738001,1779992553824
883082256,3,0.40395,0.30195,9.798,1779992553835
883082266,3,0.43305,0.30705002,9.757951,1779992553843
883082276,3,0.43500003,0.28095,9.762,1779992553854
883082286,3,0.40695003,0.28995,9.813001,1779992553864
883082296,3,0.43305,0.28095,9.798,1779992553874
883082306,3,0.45195,0.26895002,9.798,1779992553884
883082317,3,0.40905002,0.252,9.82005,1779992553894
883082327,3,0.42105,0.25905,9.83205,1779992553904
883082337,3,0.43005002,0.25005,9.813001,1779992553914
883082347,3,0.39900002,0.252,9.85305,1779992553924
883082357,3,0.402,0.24000001,9.861,1779992553934
883082367,3,0.41400003,0.23505001,9.846001,1779992553944
883082377,3,0.39900002,0.23505001,9.87495,1779992553954
883082387,3,0.39495003,0.22305001,9.898951,1779992553964
883082397,3,0.40695003,0.20400001,9.868051,1779992553974
883082407,3,0.402,0.19500001,9.870001,1779992553986
883082417,3,0.402,0.19500001,9.918,1779992553995
883082427,3,0.423,0.16605,9.918,1779992554005
883082437,3,0.411,0.18,9.898951,1779992554015
883082447,3,0.41595003,0.15900001,9.937051,1779992554025
883082458,3,0.44505003,0.14400001,9.93,1779992554035
883082468,3,0.45405003,0.15900001,9.93,1779992554045
883082478,3,0.44205,0.15405001,9.95205,1779992554055
883082488,3,0.46605003,0.156,9.93,1779992554065
883082498,3,0.49500003,0.16305001,9.955951,1779992554075
883082508,3,0.483,0.15105,9.98505,1779992554085
883082518,3,0.49995002,0.17505,9.949051,1779992554095
883082528,3,0.50205004,0.18300001,9.95205,1779992554105
883082538,3,0.50505,0.18705001,9.978001,1779992554115
883082548,3,0.51705,0.19905001,9.999001,1779992554125
883082558,3,0.531,0.21405001,9.95895,1779992554137
883082568,3,0.51195,0.22305001,9.99195,1779992554146
883082578,3,0.50895,0.23805001,10.00395,1779992554155
883082589,3,0.50895,0.24195,9.99705,1779992554166
883082599,3,0.49995002,0.264,9.99195,1779992554177
883082609,3,0.49800003,0.26895002,9.990001,1779992554187
883082619,3,0.50505,0.28305,9.99195,1779992554196
883082629,3,0.50205004,0.3,10.01595,1779992554206
883082639,3,0.49500003,0.3,9.99495,1779992554216
883082649,3,0.48600003,0.29295,9.98505,1779992554227
883082659,3,0.507,0.3,9.99495,1779992554236
883082669,3,0.51900005,0.31905,10.014001,1779992554246
883082679,3,0.50895,0.31905,9.990001,1779992554257
883082689,3,0.49995002,0.31695002,9.979951,1779992554266
883082699,3,0.507,0.30705002,10.00695,1779992554276
883082709,3,0.54105,0.30495003,9.99495,1779992554285
883082719,3,0.52395004,0.31395,9.999001,1779992554295
883082730,3,0.53595,0.30705002,10.00905,1779992554305
883082770,3,0.55695003,0.30900002,9.97095,1779992554345
883082780,3,0.54105,0.30195,9.979951,1779992554356
883082790,3,0.54495,0.30900002,9.978001,1779992554366
883082800,3,0.55305004,0.29295,9.97095,1779992554377
883082810,3,0.54300004,0.28605002,9.934951,1779992554386
883082820,3,0.531,0.264,9.949051,1779992554398
883082830,3,0.52395004,0.27405003,9.97305,1779992554406
883082840,3,0.531,0.25905,9.937051,1779992554417
883082850,3,0.52605003,0.25695002,9.95205,1779992554428
883082860,3,0.50895,0.23295002,9.942,1779992554438
883082871,3,0.51705,0.21795002,9.910951,1779992554448
883082881,3,0.55005,0.216,9.916051,1779992554458
883082891,3,0.52395004,0.15105,9.95205,1779992554468
883082901,3,0.50895,0.15900001,9.92805,1779992554477
883082911,3,0.49800003,0.16800001,9.904051,1779992554487
883082921,3,0.51900005,0.14895001,9.882001,1779992554498
883082931,3,0.51705,0.13005,9.87495,1779992554508
883082941,3,0.531,0.135,9.858001,1779992554518
883082951,3,0.52905005,0.123,9.901051,1779992554528
883082961,3,0.54300004,0.14205001,9.85305,1779992554538
883082971,3,0.55305004,0.12705001,9.813001,1779992554548
883082981,3,0.54105,0.13005,9.99195,1779992554557
883082991,3,0.63405,0.16800001,9.772051,1779992554567
883083001,3,0.57900006,0.18300001,9.87705,1779992554577
883083012,3,0.56895,0.16095,9.86505,1779992554587
883083022,3,0.61695004,0.20700002,9.85095,1779992554597
883083032,3,0.63600004,0.216,9.79605,1779992554607
883083042,3,0.60495,0.23505001,9.86505,1779992554617
883083052,3,0.63405,0.27600002,9.754951,1779992554627
883083062,3,0.60300004,0.264,9.8869505,1779992554637
883083072,3,0.61695004,0.27405003,9.7890005,1779992554648
883083082,3,0.63195,0.312,9.777,1779992554658
883083092,3,0.615,0.32595003,9.757951,1779992554668
883083102,3,0.61200005,0.31905,9.85095,1779992554678
883083112,3,0.61200005,0.324,9.729,1779992554688
883083122,3,0.591,0.321,9.8220005,1779992554700
883083132,3,0.63195,0.35295,9.748051,1779992554708
883083143,3,0.615,0.33795002,9.798,1779992554719
883083153,3,0.62700003,0.31695002,9.772051,1779992554729
883083163,3,0.61200005,0.32895002,9.798,1779992554740
883083173,3,0.63405,0.33105,9.729,1779992554749
883083183,3,0.61695004,0.312,9.801001,1779992554761
883083193,3,0.63600004,0.28995,9.777,1779992554770
883083203,3,0.64095,0.30195,9.753,1779992554780
883083213,3,0.67695004,0.27795002,9.715051,1779992554790
883083223,3,0.67695004,0.24705002,9.87705,1779992554801
883083233,3,0.675,0.26895002,9.772051,1779992554811
883083243,3,0.68205005,0.25005,9.721951,1779992554821
883083253,3,0.69105005,0.216,9.79605,1779992554830
883083263,3,0.68700004,0.20700002,9.802951,1779992554840
883083273,3,0.708,0.21795002,9.715051,1779992554851
883083284,3,0.71295005,0.20400001,9.80805,1779992554860
883083294,3,0.69600004,0.22095,9.727051,1779992554871
883083304,3,0.72,0.19695,9.757951,1779992554881
883083314,3,0.69900006,0.19005,9.778951,1779992554890
883083324,3,0.711,0.21105,9.778951,1779992554901
883083334,3,0.69405,0.19695,9.738001,1779992554910
883083344,3,0.68205005,0.20205002,9.82695,1779992554922
883083354,3,0.67005,0.20205002,9.802951,1779992554932
883083364,3,0.675,0.19500001,9.78195,1779992554940
883083374,3,0.67695004,0.20895001,9.814951,1779992554951
883083384,3,0.68700004,0.21405001,9.79395,1779992554962
883083394,3,0.67695004,0.20700002,9.81,1779992554971
883083404,3,0.66300005,0.19500001,9.80595,1779992554981
883083414,3,0.675,0.20205002,9.777,1779992554993
883083425,3,0.68895006,0.18705001,9.82005,1779992555001
883083435,3,0.68700004,0.19500001,9.84405,1779992555012
883083445,3,0.68205005,0.216,9.801001,1779992555022
883083455,3,0.68700004,0.19500001,9.817051,1779992555033
883083465,3,0.69600004,0.19905001,9.858001,1779992555043
883083475,3,0.69900006,0.21105,9.84105,1779992555051
883083485,3,0.69600004,0.19905001,9.83205,1779992555061
883083495,3,0.711,0.20895001,9.86295,1779992555072
883083505,3,0.69900006,0.22800002,9.873,1779992555082
883083515,3,0.70095,0.23505001,9.85305,1779992555092
883083525,3,0.70605004,0.24195,9.86295,1779992555102
883083535,3,0.70605004,0.25005,9.86295,1779992555112
883083545,3,0.68700004,0.25695002,9.906,1779992555123
883083555,3,0.70095,0.27105,9.906,1779992555133
883083566,3,0.68700004,0.28605002,9.880051,1779992555142
883083576,3,0.66705,0.28095,9.89595,1779992555152
883083586,3,0.67200005,0.29295,9.925051,1779992555163
883083596,3,0.684,0.30495003,9.922951,1779992555173
883083606,3,0.66495,0.29505002,9.916051,1779992555182
883083616,3,0.68205005,0.31395,9.937051,1779992555192
883083626,3,0.67695004,0.31905,9.9199505,1779992555203
883083636,3,0.684,0.31905,9.955951,1779992555212
883083646,3,0.684,0.32895002,9.94005,1779992555225
883083656,3,0.67005,0.31905,9.937051,1779992555235
883083666,3,0.66495,0.321,9.95895,1779992555242
883083676,3,0.67905,0.312,9.97095,1779992555253
883083686,3,0.68205005,0.31695002,9.987,1779992555263
883083697,3,0.67005,0.29295,9.99705,1779992555273
883083707,3,0.675,0.28800002,10.00395,1779992555284
883083717,3,0.675,0.26895002,10.002001,1779992555293
883083727,3,0.65595,0.25695002,9.979951,1779992555303
883083737,3,0.66,0.25695002,9.99705,1779992555314
883083747,3,0.68205005,0.23805001,10.002001,1779992555324
883083757,3,0.65595,0.22800002,9.990001,1779992555333
883083767,3,0.65595,0.22095,9.99495,1779992555343
883083777,3,0.64395005,0.21795002,10.011001,1779992555353
883083787,3,0.63900006,0.20205002,10.035001,1779992555363
883083797,3,0.62895006,0.19905001,10.01895,1779992555373
883083807,3,0.61695004,0.20205002,10.030951,1779992555384
883083817,3,0.591,0.19695,10.063951,1779992555393
883083827,3,0.61995006,0.20205002,10.03995,1779992555405
883083838,3,0.61200005,0.18705001,10.01895,1779992555415
883083848,3,0.59805006,0.19500001,10.00695,1779992555424
883083858,3,0.59805006,0.192,10.014001,1779992555434
883083868,3,0.58095,0.19005,10.02795,1779992555445
883083878,3,0.57900006,0.20700002,10.03995,1779992555456
883083888,3,0.58395004,0.19500001,10.03995,1779992555465
883083898,3,0.58605003,0.19500001,10.01595,1779992555475
883083908,3,0.58395004,0.20400001,10.02105,1779992555485
883083918,3,0.59595,0.20205002,10.01595,1779992555495
883083928,3,0.588,0.19500001,10.011001,1779992555505
883083938,3,0.59805006,0.22095,10.02105,1779992555516
883083948,3,0.591,0.22305001,10.02795,1779992555526
883083958,3,0.59295005,0.22800002,9.99495,1779992555534
883083968,3,0.591,0.216,9.97605,1779992555545
883083979,3,0.591,0.24000001,10.002001,1779992555557
883083989,3,0.58605003,0.23805001,10.011001,1779992555565
883083999,3,0.57705003,0.25005,9.978001,1779992555576
883084009,3,0.58395004,0.26895002,9.97605,1779992555585
883084019,3,0.56700003,0.28800002,9.987,1779992555594
883084029,3,0.55005,0.28800002,9.97095,1779992555606
883084039,3,0.55305004,0.26595002,9.967951,1779992555615
883084049,3,0.555,0.30195,9.949051,1779992555626
883084059,3,0.531,0.30195,9.922951,1779992555636
883084069,3,0.507,0.30900002,9.9199505,1779992555647
883084079,3,0.52605003,0.30495003,9.92805,1779992555656
883084089,3,0.50895,0.31695002,9.898951,1779992555666
883084099,3,0.51195,0.30705002,9.916051,1779992555675
883084109,3,0.48600003,0.29505002,9.8560505,1779992555686
883084120,3,0.50505,0.29295,9.898951,1779992555696
883084130,3,0.49995002,0.27600002,9.882001,1779992555707
883084140,3,0.48795003,0.29295,9.861,1779992555716
883084150,3,0.49500003,0.28095,9.82005,1779992555727
883084160,3,0.49305,0.264,9.85305,1779992555737
883084170,3,0.49500003,0.24495001,9.880051,1779992555746
883084180,3,0.483,0.25005,9.825001,1779992555757
883084190,3,0.49305,0.252,9.78195,1779992555768
883084200,3,0.47805002,0.23295002,9.84105,1779992555777
883084210,3,0.49305,0.22800002,9.777,1779992555787
883084220,3,0.45900002,0.22605,9.772051,1779992555798
883084230,3,0.462,0.21405001,9.73095,1779992555807
883084240,3,0.46395,0.21405001,9.777,1779992555818
883084251,3,0.47400004,0.216,9.7240505,1779992555827
883084261,3,0.462,0.21405001,9.762,1779992555837
883084271,3,0.44205,0.20700002,9.691051,1779992555848
883084281,3,0.45900002,0.19905001,9.715051,1779992555857
883084291,3,0.462,0.18495001,9.717,1779992555868
883084301,3,0.43305,0.22095,9.691051,1779992555878
883084311,3,0.42795002,0.19695,9.65505,1779992555887
883084321,3,0.42600003,0.192,9.68805,1779992555898
883084331,3,0.43800002,0.19695,9.669001,1779992555908
883084341,3,0.42105,0.19905001,9.658951,1779992555918
883084351,3,0.39495003,0.18705001,9.633,1779992555928
883084361,3,0.42105,0.20205002,9.628051,1779992555938
883084371,3,0.41595003,0.22095,9.645,1779992555947
883084381,3,0.40695003,0.216,9.595051,1779992555957
883084392,3,0.39705002,0.20400001,9.6,1779992555967
883084402,3,0.41805002,0.216,9.597,1779992555979
883084412,3,0.42600003,0.216,9.5779505,1779992555988
883084422,3,0.41595003,0.22605,9.583051,1779992555999
883084432,3,0.411,0.22605,9.573001,1779992556009
883084442,3,0.43305,0.23295002,9.54195,1779992556018
883084452,3,0.41595003,0.23295002,9.56595,1779992556029
883084462,3,0.40395,0.25005,9.55395,1779992556039
883084472,3,0.41595003,0.26205,9.52095,1779992556049
883084482,3,0.41595003,0.25695002,9.54705,1779992556060
883084492,3,0.41805002,0.26205,9.5449505,1779992556069
883084502,3,0.40395,0.24495001,9.475051,1779992556078
883084512,3,0.42795002,0.28095,9.549001,1779992556090
883084522,3,0.42795002,0.29505002,9.5130005,1779992556100
883084533,3,0.41595003,0.26895002,9.559051,1779992556109
883084543,3,0.39900002,0.30195,9.48705,1779992556120
883084553,3,0.40395,0.32595003,9.52305,1779992556130
883084563,3,0.40695003,0.31395,9.52995,1779992556139
883084573,3,0.41805002,0.333,9.5130005,1779992556150
883084583,3,0.40905002,0.33105,9.47805,1779992556159
883084593,3,0.402,0.31905,9.53295,1779992556169
883084603,3,0.41595003,0.333,9.52995,1779992556180
883084613,3,0.402,0.31395,9.51105,1779992556192
883084623,3,0.40395,0.30195,9.504001,1779992556200
883084633,3,0.43005002,0.27795002,9.528001,1779992556213
883084643,3,0.45195,0.27600002,9.5130005,1779992556220
883084653,3,0.41805002,0.24495001,9.52995,1779992556230
883084663,3,0.423,0.24000001,9.52305,1779992556239
883084674,3,0.44505003,0.22095,9.54195,1779992556249
883084684,3,0.45900002,0.216,9.549001,1779992556259
883084694,3,0.43995002,0.19695,9.561001,1779992556270
883084704,3,0.44505003,0.18,9.516001,1779992556280
883084714,3,0.43995002,0.16095,9.56805,1779992556290
883084724,3,0.45900002,0.17805001,9.583051,1779992556300
883084734,3,0.45705003,0.16800001,9.556951,1779992556312
883084744,3,0.46605003,0.16305001,9.525001,1779992556323
883084754,3,0.462,0.16800001,9.583051,1779992556331
883084764,3,0.45705003,0.17505,9.589951,1779992556341
883084774,3,0.45195,0.171,9.58005,1779992556351
883084784,3,0.45900002,0.17805001,9.595051,1779992556362
883084794,3,0.44205,0.16800001,9.604051,1779992556371
883084805,3,0.45900002,0.18495001,9.616051,1779992556382
883084815,3,0.46395,0.192,9.64305,1779992556392
883084825,3,0.45195,0.19905001,9.621,1779992556402
883084835,3,0.44700003,0.21105,9.658951,1779992556412
883084845,3,0.47595003,0.20700002,9.658951,1779992556421
883084855,3,0.45900002,0.21405001,9.66195,1779992556432
883084865,3,0.45900002,0.22800002,9.669001,1779992556441
883084875,3,0.46605003,0.24195,9.693001,1779992556452
883084885,3,0.483,0.22995001,9.669001,1779992556462
883084895,3,0.49305,0.24495001,9.68805,1779992556472
883084905,3,0.49005002,0.252,9.71895,1779992556482
883084915,3,0.51900005,0.25695002,9.733951,1779992556493
883084925,3,0.52395004,0.26595002,9.73095,1779992556502
883084935,3,0.52905005,0.28995,9.760051,1779992556513
883084946,3,0.52905005,0.28995,9.762,1779992556523
883084956,3,0.55995005,0.29700002,9.772051,1779992556533
883084966,3,0.58095,0.31695002,9.79395,1779992556542
883084976,3,0.61200005,0.324,9.78195,1779992556553
883084986,3,0.66,0.34095,9.80595,1779992556561
883084996,3,0.70095,0.33600003,9.837001,1779992556574
883085006,3,0.75405,0.30705002,9.84405,1779992556582
883085016,3,0.79395,0.264,9.798,1779992556593
883085026,3,0.873,0.23505001,9.802951,1779992556603
883085036,3,0.9480001,0.20895001,9.83895,1779992556613
883085046,3,0.99105006,0.216,9.82005,1779992556623
883085056,3,1.02405,0.27105,9.82695,1779992556633
883085066,3,1.0669501,0.23805001,9.846001,1779992556643
883085076,3,1.0819501,0.15900001,9.97605,1779992556654
883085087,3,1.13205,0.12495001,9.92805,1779992556663
883085097,3,1.2210001,0.075,9.8220005,1779992556674
883085107,3,1.26405,0.010050001,9.858001,1779992556684
883085117,3,1.31895,0.01995,9.82005,1779992556693
883085127,3,1.338,0.025050001,9.798,1779992556703
883085137,3,1.3279501,0.06795,9.86295,1779992556714
883085147,3,1.3120501,0.108,9.894,1779992556724
883085157,3,1.314,0.096,9.946951,1779992556735
883085167,3,1.31895,0.12495001,9.8890505,1779992556745
883085177,3,1.338,0.17295001,9.79605,1779992556753
883085187,3,1.3279501,0.17505,9.882001,1779992556765
883085197,3,1.33305,0.22095,9.922951,1779992556773
883085207,3,1.3240501,0.312,9.880051,1779992556784
883085217,3,1.338,0.31395,9.87495,1779992556795
883085228,3,1.36395,0.33795002,9.87495,1779992556804
883085238,3,1.36905,0.324,9.925051,1779992556815
883085248,3,1.4170501,0.312,9.8869505,1779992556824
883085258,3,1.4620501,0.34800002,9.78195,1779992556835
883085268,3,1.5010501,0.34800002,9.89595,1779992556844
883085278,3,1.6129501,0.381,9.898951,1779992556855
883085288,3,1.5649501,0.393,9.918,1779992556865
883085298,3,1.57305,0.37905002,9.8890505,1779992556875
883085308,3,1.659,0.36195,9.801001,1779992556885
883085318,3,1.7400001,0.31395,9.894,1779992556896
883085328,3,1.7040001,0.26205,9.92805,1779992556906
883085338,3,1.7520001,0.3,9.66405,1779992556914
883085348,3,1.7860501,0.321,9.825001,1779992556926
883085358,3,1.7400001,0.30495003,9.946951,1779992556934
883085369,3,1.7329501,0.41505003,9.837001,1779992556945
883085379,3,1.7329501,0.41700003,9.790951,1779992556955
883085389,3,1.6800001,0.32895002,9.86295,1779992556965
883085399,3,1.659,0.38595003,9.769951,1779992556976
883085409,3,1.6180501,0.33795002,9.942,1779992556987
883085419,3,1.5769501,0.34305,9.81,1779992556995
883085429,3,1.5960001,0.36495003,9.70695,1779992557006
883085439,3,1.6159501,0.34800002,9.813001,1779992557017
883085449,3,1.539,0.33600003,9.916051,1779992557025
883085459,3,1.5130501,0.33105,9.778951,1779992557037
883085469,3,1.5439501,0.264,9.80805,1779992557045
883085479,3,1.575,0.20400001,9.79395,1779992557055
883085489,3,1.5990001,0.17505,9.83205,1779992557066
883085500,3,1.57305,0.15105,9.765,1779992557077
883085510,3,1.55805,0.11805001,9.753,1779992557086
883085520,3,1.5630001,0.14205001,9.78195,1779992557095
883085530,3,1.644,0.123,9.80805,1779992557107
883085540,3,1.5649501,0.08400001,9.913051,1779992557117
883085550,3,1.5700501,0.063,9.846001,1779992557127
883085560,3,1.5820501,0.10395,9.609,1779992557136
883085570,3,1.608,0.025050001,9.837001,1779992557147
883085580,3,1.4460001,0.010050001,9.778951,1779992557157
883085590,3,1.5289501,0.06795,9.693001,1779992557166
883085600,3,1.4670001,0.03705,9.798,1779992557177
883085610,3,1.4500501,0.10605001,9.766951,1779992557186
883085620,3,1.3810501,0.15900001,9.670951,1779992557198
883085630,3,1.3039501,0.11595,9.86295,1779992557208
883085641,3,1.3740001,0.16605,9.790951,1779992557218
883085651,3,1.2970501,0.19005,9.733951,1779992557227
883085661,3,1.23,0.14400001,9.802951,1779992557236
883085671,3,1.2090001,0.216,9.802951,1779992557248
883085681,3,1.2420001,0.26595002,9.772051,1779992557257
883085691,3,1.161,0.28305,9.80595,1779992557267
883085701,3,1.17495,0.321,9.741,1779992557276
883085711,3,1.1770501,0.30495003,9.790951,1779992557289
883085721,3,1.1389501,0.28800002,9.81,1779992557298
883085731,3,1.125,0.32595003,9.75,1779992557307
883085741,3,1.146,0.33105,9.727051,1779992557318
883085751,3,1.1850001,0.324,9.8560505,1779992557327
883085761,3,1.1700001,0.31905,9.772051,1779992557338
883085771,3,1.1920501,0.30195,9.801001,1779992557349
883085782,3,1.1560501,0.264,9.736051,1779992557359
883085792,3,1.125,0.24000001,9.813001,1779992557368
883085802,3,1.0890001,0.21105,9.765,1779992557378
883085812,3,1.04295,0.22605,9.790951,1779992557389
883085822,3,1.0000501,0.30195,9.741,1779992557398
883085832,3,1.02405,0.34305,9.78195,1779992557408
883085842,3,0.96195006,0.38595003,9.861,1779992557419
883085852,3,0.87105006,0.384,9.784051,1779992557429
883085862,3,0.84000003,0.36900002,9.68595,1779992557439
883085872,3,0.837,0.34995002,9.86505,1779992557450
883085882,3,0.75405,0.32895002,9.85095,1779992557460
883085892,3,0.71505004,0.3,9.736051,1779992557469
883085902,3,0.71805006,0.324,9.784051,1779992557480
883085912,3,0.708,0.30900002,9.837001,1779992557489
883085923,3,0.72300005,0.30495003,9.84105,1779992557500
883085933,3,0.68895006,0.26205,9.762,1779992557509
883085943,3,0.67005,0.22995001,9.778951,1779992557519
883085953,3,0.70095,0.18,9.83895,1779992557529
883085963,3,0.684,0.13005,9.81,1779992557539
883085973,3,0.651,0.075,9.772051,1779992557549
883085983,3,0.68205005,0.01995,9.778951,1779992557560
883085993,3,0.675,-0.00795,9.817051,1779992557571
883086003,3,0.69105005,-0.01305,9.82905,1779992557579
883086013,3,0.72300005,-0.02205,9.790951,1779992557590
883086023,3,0.711,-0.027,9.772051,1779992557601
883086033,3,0.67695004,-0.018000001,9.80805,1779992557611
883086043,3,0.69105005,0.00795,9.802951,1779992557621
883086054,3,0.65595,0.048,9.78195,1779992557630
883086064,3,0.61005,0.096,9.78195,1779992557642
883086074,3,0.63600004,0.15405001,9.801001,1779992557650
883086084,3,0.60795003,0.20205002,9.82695,1779992557661
883086094,3,0.57405,0.24195,9.769951,1779992557670
883086104,3,0.57405,0.28095,9.784051,1779992557682
883086114,3,0.56700003,0.30195,9.84105,1779992557690
883086124,3,0.54795,0.31395,9.813001,1779992557700
883086134,3,0.57900006,0.34800002,9.790951,1779992557710
883086144,3,0.555,0.36,9.80595,1779992557722
883086154,3,0.61695004,0.37395,9.849001,1779992557732
883086164,3,0.65805006,0.36900002,9.80805,1779992557742
883086174,3,0.66495,0.38595003,9.798,1779992557752
883086184,3,0.69600004,0.36,9.784051,1779992557761
883086195,3,0.75405,0.35295,9.79605,1779992557772
883086205,3,0.79200006,0.34305,9.79605,1779992557781
883086215,3,0.79395,0.34305,9.777,1779992557792
883086225,3,0.84495,0.31695002,9.754951,1779992557802
883086235,3,0.87600005,0.30705002,9.82005,1779992557810
883086245,3,0.85695004,0.30705002,9.8220005,1779992557822
883086255,3,0.87600005,0.30705002,9.777,1779992557831
883086265,3,0.86595005,0.30495003,9.766951,1779992557841
883086275,3,0.84000003,0.29295,9.784051,1779992557851
883086285,3,0.84900004,0.28605002,9.79605,1779992557862
883086295,3,0.804,0.31905,9.753,1779992557872
883086305,3,0.74700004,0.29505002,9.75,1779992557881
883086315,3,0.73695004,0.3,9.82005,1779992557893
883086325,3,0.69900006,0.324,9.82005,1779992557902
883086336,3,0.63600004,0.31695002,9.78195,1779992557911
883086346,3,0.60795003,0.31695002,9.75,1779992557923
883086356,3,0.59805006,0.31695002,9.81,1779992557932
883086366,3,0.56205004,0.28800002,9.80595,1779992557942
883086376,3,0.54105,0.28095,9.760051,1779992557952
883086386,3,0.54105,0.27105,9.757951,1779992557963
883086396,3,0.51705,0.25005,9.786,1779992557972
883086406,3,0.52605003,0.22305001,9.802951,1779992557982
883086416,3,0.531,0.20400001,9.786,1779992557992
883086426,3,0.50895,0.17295001,9.741,1779992558002
883086436,3,0.55995005,0.13695,9.774,1779992558013
883086446,3,0.55695003,0.112950005,9.80805,1779992558024
883086456,3,0.57900006,0.079950005,9.71895,1779992558033
883086466,3,0.58095,0.08895,9.691051,1779992558044
883086477,3,0.57405,0.09195001,9.73095,1779992558054
883086487,3,0.57705003,0.11805001,9.738001,1779992558064
883086497,3,0.56700003,0.12495001,9.736051,1779992558073
883086507,3,0.51405,0.171,9.715051,1779992558084
883086517,3,0.50505,0.16305001,9.784051,1779992558094
883086527,3,0.40905002,0.12495001,9.868051,1779992558103
883086537,3,0.48600003,0.16305001,9.753,1779992558114
883086547,3,0.43500003,0.16305001,9.657001,1779992558123
883086557,3,0.42600003,0.18705001,9.691051,1779992558135
883086567,3,0.35895002,0.23505001,9.71895,1779992558143
883086577,3,0.27195,0.21405001,9.868051,1779992558155
883086587,3,0.363,0.22605,9.66405,1779992558165
883086597,3,0.282,0.321,9.762,1779992558175
883086608,3,0.21000001,0.321,9.760051,1779992558183
883086618,3,0.28005,0.29505002,9.74295,1779992558195
883086628,3,0.26295,0.28995,9.68805,1779992558206
883086638,3,0.18105,0.34095,9.777,1779992558215
883086648,3,0.28905,0.34305,9.604051,1779992558226
883086658,3,0.282,0.34095,9.733951,1779992558235
883086668,3,0.23205002,0.33105,9.70005,1779992558245
883086678,3,0.294,0.34500003,9.68295,1779992558256
883086688,3,0.351,0.30705002,9.717,1779992558264
883086698,3,0.32295,0.27105,9.78195,1779992558274
883086708,3,0.35595003,0.264,9.669001,1779992558284
883086718,3,0.39195,0.23805001,9.70695,1779992558294
883086728,3,0.41595003,0.22995001,9.70005,1779992558304
883086738,3,0.41805002,0.20400001,9.736051,1779992558314
883086749,3,0.42105,0.21405001,9.68805,1779992558325
883086759,3,0.42105,0.20895001,9.681001,1779992558335
883086769,3,0.423,0.21105,9.71895,1779992558345
883086779,3,0.42600003,0.19695,9.73095,1779992558354
883086789,3,0.39195,0.19005,9.66405,1779992558366
883086799,3,0.342,0.21105,9.70695,1779992558376
883086809,3,0.37305,0.20895001,9.69795,1779992558386
883086819,3,0.35595003,0.216,9.70995,1779992558395
883086829,3,0.29595003,0.22800002,9.67905,1779992558405
883086839,3,0.27705002,0.23805001,9.68805,1779992558416
883086849,3,0.31605002,0.22095,9.67605,1779992558425
883086859,3,0.26805001,0.22605,9.736051,1779992558435
883086869,3,0.25995,0.22800002,9.68595,1779992558446
883086879,3,0.141,0.18300001,9.43395,1779992558456
883086890,3,0.423,0.37905002,10.026,1779992558467
883086900,3,0.33705002,0.27600002,9.456,1779992558477
883086910,3,0.15,0.08895,10.026,1779992558487
883086920,3,0.45705003,0.40800002,8.89605,1779992558498
883086930,3,0.25995,0.41700003,10.191001,1779992558506
883086940,3,0.33195,0.156,9.873,1779992558517
883086950,3,0.531,0.23295002,9.298051,1779992558527
883086960,3,0.49500003,0.35295,9.47295,1779992558537
883086970,3,0.21705002,0.028950002,10.288951,1779992558548
883086980,3,0.54495,0.11805001,9.595051,1779992558557
883086990,3,0.46605003,0.17505,9.86505,1779992558567
883087000,3,0.39705002,0.16095,9.50895,1779992558578
883087010,3,0.55995005,0.35505003,9.657001,1779992558586
883087020,3,0.37800002,0.31695002,9.825001,1779992558597
883087031,3,0.24105,0.24195,9.73095,1779992558608
883087041,3,0.52605003,0.26595002,9.633,1779992558618
883087051,3,0.34695002,0.38805002,9.6,1779992558627
883087061,3,0.36600003,0.24000001,9.646951,1779992558637
883087071,3,0.24405001,0.22995001,9.99705,1779992558648
883087081,3,0.34905002,0.33600003,9.53295,1779992558658
883087091,3,0.29205,0.26595002,9.717,1779992558668
883087101,3,0.31305,0.34500003,9.733951,1779992558677
883087111,3,0.27195,0.37605003,9.885,1779992558688
883087121,3,0.29895002,0.34095,9.624001,1779992558698
883087131,3,0.33705002,0.36705002,9.75,1779992558707
883087141,3,0.28905,0.36495003,9.715051,1779992558717
883087151,3,0.31995,0.26595002,9.801001,1779992558728
883087162,3,0.38505003,0.27105,9.766951,1779992558739
883087172,3,0.37095,0.27105,9.754951,1779992558748
883087182,3,0.33195,0.24000001,9.778951,1779992558759
883087192,3,0.43800002,0.23295002,9.79605,1779992558769
883087202,3,0.45195,0.20400001,9.754951,1779992558779
883087212,3,0.46605003,0.16800001,9.70005,1779992558788
883087222,3,0.47400004,0.12705001,9.83205,1779992558799
883087232,3,0.43500003,0.123,9.80805,1779992558808
883087242,3,0.50505,0.123,9.762,1779992558819
883087252,3,0.51705,0.16095,9.80595,1779992558830
883087262,3,0.45000002,0.112950005,9.81,1779992558839
883087272,3,0.43500003,0.13905,9.83205,1779992558849
883087282,3,0.49305,0.18705001,9.79395,1779992558860
883087292,3,0.411,0.156,9.774,1779992558870
883087303,3,0.37995002,0.18705001,9.86505,1779992558878
883087313,3,0.42600003,0.24705002,9.769951,1779992558889
883087323,3,0.37995002,0.20895001,9.778951,1779992558900
883087333,3,0.34695002,0.26205,9.898951,1779992558909
883087343,3,0.402,0.28995,9.741,1779992558919
883087353,3,0.34905002,0.22800002,9.772051,1779992558930
883087363,3,0.33,0.27600002,9.873,1779992558941
883087373,3,0.39705002,0.29700002,9.78195,1779992558951
883087383,3,0.36795002,0.27405003,9.721951,1779992558961
883087393,3,0.33,0.28800002,9.92805,1779992558971
883087403,3,0.44505003,0.31695002,9.777,1779992558981
883087413,3,0.402,0.27105,9.754951,1779992558993
883087423,3,0.39705002,0.34995002,9.894,1779992559000
883087433,3,0.47100002,0.34095,9.769951,1779992559011
883087444,3,0.48105,0.26595002,9.777,1779992559021
883087454,3,0.48105,0.25695002,9.79605,1779992559031
883087464,3,0.462,0.27105,9.885,1779992559042
883087474,3,0.52605003,0.24195,9.74295,1779992559050
883087484,3,0.507,0.21105,9.8560505,1779992559060
883087494,3,0.52095,0.26205,9.83895,1779992559070
883087504,3,0.50895,0.23805001,9.81,1779992559080
883087514,3,0.49305,0.23295002,9.80595,1779992559091
883087524,3,0.49800003,0.26895002,9.8890505,1779992559101
883087534,3,0.46905002,0.24195,9.757951,1779992559112
883087544,3,0.423,0.26205,9.949051,1779992559121
883087554,3,0.46605003,0.312,9.801001,1779992559130
883087564,3,0.44505003,0.28095,9.772051,1779992559141
883087574,3,0.34905002,0.32895002,9.922951,1779992559152
883087585,3,0.42795002,0.34500003,9.80805,1779992559162
883087595,3,0.42105,0.29295,9.733951,1779992559172
883087605,3,0.34695002,0.27795002,9.954,1779992559182
883087615,3,0.43305,0.31695002,9.798,1779992559191
883087625,3,0.41400003,0.25395,9.757951,1779992559202
883087635,3,0.36600003,0.24495001,9.92805,1779992559213
883087645,3,0.45405003,0.27600002,9.84105,1779992559221
883087655,3,0.48795003,0.22800002,9.786,1779992559234
883087665,3,0.43305,0.25905,9.906,1779992559241
883087675,3,0.44700003,0.22995001,9.861,1779992559254
883087685,3,0.531,0.17295001,9.765,1779992559261
883087695,3,0.52395004,0.14895001,9.849001,1779992559271
883087705,3,0.54300004,0.135,9.81,1779992559281
883087716,3,0.53595,0.10395,9.882001,1779992559292
883087726,3,0.6,0.12495001,9.858001,1779992559301
883087736,3,0.56505,0.09900001,9.861,1779992559312
883087746,3,0.58395004,0.10605001,9.79395,1779992559323
883087756,3,0.58395004,0.15900001,9.846001,1779992559332
883087766,3,0.55695003,0.15405001,9.814951,1779992559342
883087776,3,0.52095,0.18300001,9.86505,1779992559353
883087786,3,0.53295004,0.23805001,9.798,1779992559363
883087796,3,0.52905005,0.22605,9.760051,1779992559373
883087806,3,0.51705,0.25005,9.82905,1779992559383
883087816,3,0.46905002,0.28800002,9.87705,1779992559393
883087826,3,0.50505,0.27105,9.801001,1779992559404
883087836,3,0.48600003,0.29505002,9.802951,1779992559413
883087846,3,0.45705003,0.333,9.898951,1779992559423
883087857,3,0.49500003,0.31395,9.777,1779992559433
883087867,3,0.48600003,0.33105,9.760051,1779992559444
883087877,3,0.483,0.333,9.861,1779992559453
883087887,3,0.54105,0.333,9.801001,1779992559464
883087897,3,0.52905005,0.31905,9.769951,1779992559474
883087907,3,0.52605003,0.32895002,9.873,1779992559483
883087917,3,0.57900006,0.28995,9.774,1779992559493
883087927,3,0.588,0.25695002,9.80805,1779992559503
883087937,3,0.61005,0.26205,9.82005,1779992559513
883087947,3,0.59805006,0.24000001,9.784051,1779992559523
883087957,3,0.67200005,0.22605,9.777,1779992559533
883087967,3,0.68700004,0.20400001,9.906,1779992559545
883087977,3,0.66,0.19695,9.786,1779992559554
883087987,3,0.675,0.22095,9.774,1779992559565
883087998,3,0.675,0.16800001,9.79395,1779992559575
883088008,3,0.675,0.18,9.84405,1779992559585
883088018,3,0.68205005,0.216,9.738001,1779992559594
883088028,3,0.651,0.23805001,9.786,1779992559605
883088038,3,0.651,0.23805001,9.745951,1779992559614
883088048,3,0.64095,0.25905,9.7890005,1779992559625
883088058,3,0.61200005,0.26205,9.784051,1779992559636
883088068,3,0.57705003,0.28095,9.849001,1779992559645
883088078,3,0.6,0.312,9.778951,1779992559656
883088088,3,0.60795003,0.27105,9.814951,1779992559665
883088098,3,0.6,0.28605002,9.757951,1779992559676
883088108,3,0.61005,0.28800002,9.748051,1779992559685
883088118,3,0.61695004,0.27105,9.78195,1779992559694
883088128,3,0.624,0.264,9.81,1779992559705
883088139,3,0.62205005,0.27600002,9.79605,1779992559715
883088149,3,0.61695004,0.22605,9.846001,1779992559726
883088159,3,0.67200005,0.22995001,9.814951,1779992559735
883088169,3,0.67200005,0.19500001,9.7890005,1779992559746
883088179,3,0.69600004,0.17505,9.83205,1779992559755
883088189,3,0.74205005,0.171,9.754951,1779992559766
883088199,3,0.74205005,0.14400001,9.769951,1779992559775
883088209,3,0.76605004,0.14895001,9.802951,1779992559786
883088219,3,0.76605004,0.14400001,9.769951,1779992559795
883088229,3,0.77805007,0.16605,9.813001,1779992559805
883088239,3,0.72300005,0.16800001,9.82905,1779992559816
883088249,3,0.76095,0.22605,9.778951,1779992559827
883088259,3,0.73005,0.216,9.784051,1779992559836
883088270,3,0.69405,0.22800002,9.882001,1779992559847
883088280,3,0.708,0.25905,9.736051,1779992559857
883088290,3,0.711,0.30195,9.74295,1779992559866
883088300,3,0.63600004,0.30705002,9.813001,1779992559877
883088310,3,0.66,0.32895002,9.81,1779992559887
883088320,3,0.65595,0.34095,9.765,1779992559896
883088330,3,0.57900006,0.36,9.89595,1779992559907
883088340,3,0.61995006,0.33795002,9.790951,1779992559917
883088350,3,0.63900006,0.34800002,9.82005,1779992559927
883088360,3,0.62895006,0.31395,9.849001,1779992559937
883088370,3,0.62205005,0.31395,9.798,1779992559947
883088380,3,0.66,0.32595003,9.813001,1779992559957
883088390,3,0.62895006,0.30705002,9.86295,1779992559967
883088400,3,0.67695004,0.27795002,9.85095,1779992559977
883088411,3,0.675,0.27405003,9.85095,1779992559987
883088421,3,0.68205005,0.25695002,9.85095,1779992559998
883088431,3,0.71805006,0.22605,9.8560505,1779992560007
883088441,3,0.73200005,0.21405001,9.85095,1779992560018
883088451,3,0.744,0.19500001,9.83205,1779992560028
883088461,3,0.75105006,0.18495001,9.78195,1779992560038
883088471,3,0.77805007,0.18300001,9.813001,1779992560048
883088481,3,0.73695004,0.16095,9.8220005,1779992560058
883088491,3,0.72495,0.17505,9.84405,1779992560068
883088501,3,0.72300005,0.18300001,9.834001,1779992560078
883088511,3,0.70095,0.18,9.892051,1779992560087
883088521,3,0.68205005,0.18300001,9.858001,1779992560098
883088531,3,0.68205005,0.21105,9.880051,1779992560107
883088541,3,0.63600004,0.22605,9.82695,1779992560118
883088552,3,0.64095,0.24495001,9.84105,1779992560129
883088562,3,0.62205005,0.25005,9.858001,1779992560139
883088572,3,0.615,0.25005,9.82905,1779992560149
883088582,3,0.62205005,0.26595002,9.846001,1779992560159
883088592,3,0.59805006,0.264,9.880051,1779992560169
883088602,3,0.57705003,0.27105,9.901051,1779992560178
883088612,3,0.60300004,0.26895002,9.8560505,1779992560189
883088622,3,0.60495,0.25695002,9.8560505,1779992560198
883088632,3,0.62700003,0.24195,9.85305,1779992560210
883088642,3,0.63405,0.20895001,9.846001,1779992560222
883088652,3,0.651,0.22800002,9.846001,1779992560229
883088662,3,0.66495,0.216,9.82905,1779992560238
883088672,3,0.67905,0.21795002,9.86505,1779992560249
883088682,3,0.68895006,0.20895001,9.87495,1779992560260
883088693,3,0.69405,0.20205002,9.858001,1779992560270
883088703,3,0.70305,0.18495001,9.85305,1779992560278
883088713,3,0.69600004,0.19005,9.870001,1779992560288
883088723,3,0.70605004,0.19695,9.83895,1779992560299
883088733,3,0.67695004,0.20895001,9.849001,1779992560311
883088743,3,0.67005,0.22605,9.83205,1779992560319
883088753,3,0.651,0.24495001,9.837001,1779992560330
883088763,3,0.63405,0.264,9.85305,1779992560341
883088773,3,0.60795003,0.27600002,9.837001,1779992560349
883088783,3,0.57900006,0.28095,9.849001,1779992560360
883088793,3,0.53595,0.29505002,9.916051,1779992560370
883088803,3,0.55695003,0.32595003,9.84405,1779992560380
883088813,3,0.53595,0.312,9.80595,1779992560390
883088823,3,0.53805,0.30900002,9.81,1779992560400
883088834,3,0.53295004,0.3,9.80805,1779992560410
883088844,3,0.52905005,0.32895002,9.882001,1779992560422
883088854,3,0.52395004,0.31395,9.8220005,1779992560430
883088864,3,0.55305004,0.30705002,9.7890005,1779992560442
883088874,3,0.54495,0.28995,9.813001,1779992560450
883088884,3,0.55695003,0.27405003,9.825001,1779992560460
883088894,3,0.56895,0.24705002,9.825001,1779992560470
883088904,3,0.56205004,0.22995001,9.80595,1779992560482
883088914,3,0.59595,0.23505001,9.813001,1779992560491
883088924,3,0.60495,0.19905001,9.8560505,1779992560500
883088934,3,0.6,0.19905001,9.80595,1779992560512
883088944,3,0.61200005,0.18300001,9.774,1779992560522
883088954,3,0.59595,0.171,9.765,1779992560531
883088965,3,0.60300004,0.18,9.801001,1779992560542
883088975,3,0.59805006,0.19005,9.760051,1779992560550
883088985,3,0.57195,0.20205002,9.729,1779992560562
883088995,3,0.555,0.19695,9.762,1779992560573
883089005,3,0.54795,0.20205002,9.790951,1779992560581
883089015,3,0.47100002,0.29505002,9.8560505,1779992560592
883089025,3,0.48600003,0.27600002,9.754951,1779992560602
883089035,3,0.49005002,0.25395,9.703051,1779992560611
883089045,3,0.46905002,0.25905,9.74295,1779992560621
883089055,3,0.462,0.22995001,9.717,1779992560632
883089065,3,0.39195,0.27405003,9.813001,1779992560642
883089075,3,0.43800002,0.3,9.69795,1779992560652
883089085,3,0.43500003,0.27105,9.70695,1779992560662
883089095,3,0.43305,0.26595002,9.70695,1779992560673
883089106,3,0.38700002,0.25695002,9.772051,1779992560681
883089116,3,0.45405003,0.252,9.69495,1779992560691
883089126,3,0.45900002,0.22095,9.745951,1779992560702
883089136,3,0.44205,0.252,9.703051,1779992560711
883089146,3,0.43800002,0.252,9.715051,1779992560721
883089156,3,0.48795003,0.23295002,9.66405,1779992560731
883089166,3,0.48105,0.22305001,9.69495,1779992560741
883089176,3,0.47805002,0.22095,9.67905,1779992560751
883089186,3,0.483,0.22305001,9.70005,1779992560762
883089196,3,0.50895,0.22995001,9.66405,1779992560773
883089206,3,0.48600003,0.22305001,9.69495,1779992560783
883089216,3,0.46605003,0.24495001,9.67395,1779992560793
883089226,3,0.49305,0.25695002,9.68295,1779992560804
883089236,3,0.45900002,0.25905,9.66705,1779992560813
883089247,3,0.42105,0.24495001,9.681001,1779992560823
883089257,3,0.39900002,0.26595002,9.67395,1779992560834
883089267,3,0.40695003,0.28305,9.657001,1779992560843
883089277,3,0.39195,0.27795002,9.669001,1779992560853
883089287,3,0.363,0.25005,9.636001,1779992560863
883089297,3,0.40905002,0.23805001,9.729,1779992560874
883089307,3,0.39900002,0.28800002,9.54705,1779992560884
883089317,3,0.24105,0.27600002,9.85095,1779992560894
883089327,3,0.31995,0.29505002,9.571051,1779992560902
883089337,3,0.35595003,0.28305,9.54705,1779992560913
883089347,3,0.25800002,0.25695002,9.73095,1779992560924
883089357,3,0.31305,0.27105,9.6,1779992560933
883089367,3,0.33495003,0.29505002,9.501,1779992560944
883089377,3,0.25800002,0.24195,9.8220005,1779992560953
883089388,3,0.34905002,0.23805001,9.6,1779992560964
883089398,3,0.34905002,0.23295002,9.589951,1779992560975
883089408,3,0.28395,0.18495001,9.760051,1779992560986
883089418,3,0.37095,0.192,9.66705,1779992560995
883089428,3,0.36600003,0.135,9.58005,1779992561005
883089438,3,0.29205,0.14895001,9.753,1779992561015
883089448,3,0.34905002,0.17505,9.625951,1779992561024
883089458,3,0.33900002,0.16605,9.628051,1779992561036
883089468,3,0.27195,0.19500001,9.721951,1779992561046
883089478,3,0.28395,0.19695,9.64305,1779992561054
883089488,3,0.28395,0.22605,9.621,1779992561065
883089498,3,0.20805001,0.22995001,9.765,1779992561074
883089508,3,0.246,0.25395,9.621,1779992561085
883089519,3,0.21300001,0.22605,9.625951,1779992561094
883089529,3,0.16695,0.25395,9.70695,1779992561105
883089539,3,0.20505,0.24705002,9.645,1779992561115
883089549,3,0.16005,0.20700002,9.597,1779992561126
883089559,3,0.17895001,0.25005,9.870001,1779992561135
883089569,3,0.26505002,0.26205,9.50895,1779992561146
883089579,3,0.031050002,0.26205,9.880051,1779992561156
883089589,3,0.15300001,0.28305,9.576,1779992561166
883089599,3,0.26805001,0.252,9.621,1779992561175
883089609,3,0.12900001,0.27405003,9.802951,1779992561186
883089619,3,0.141,0.27795002,9.769951,1779992561196
883089629,3,0.28395,0.26595002,9.501,1779992561206
883089639,3,0.14595,0.22305001,9.92805,1779992561217
883089649,3,0.22695,0.25395,9.693001,1779992561226
883089660,3,0.27705002,0.25005,9.691051,1779992561237
883089670,3,0.21000001,0.23295002,9.778951,1779992561246
883089680,3,0.22200002,0.20700002,9.778951,1779992561255
883089690,3,0.30405003,0.20400001,9.669001,1779992561267
883089700,3,0.22005,0.20400001,9.86295,1779992561276
883089710,3,0.246,0.22305001,9.7240505,1779992561286
883089720,3,0.26505002,0.19500001,9.75,1779992561296
883089730,3,0.20295002,0.20205002,9.802951,1779992561305
883089740,3,0.22200002,0.22800002,9.8220005,1779992561315
883089750,3,0.23895001,0.21405001,9.703051,1779992561326
883089760,3,0.13095,0.22995001,9.86295,1779992561336
883089770,3,0.18900001,0.24705002,9.814951,1779992561347
883089780,3,0.21000001,0.24495001,9.736051,1779992561357
883089790,3,0.11895001,0.25905,9.873,1779992561367
883089801,3,0.162,0.25695002,9.801001,1779992561377
883089811,3,0.19800001,0.25395,9.772051,1779992561388
883089821,3,0.13800001,0.27405003,9.910951,1779992561398
883089831,3,0.20505,0.27600002,9.79395,1779992561408
883089841,3,0.23205002,0.264,9.784051,1779992561417
883089851,3,0.17895001,0.28095,9.904051,1779992561428
883089861,3,0.26295,0.26895002,9.79605,1779992561438
883089871,3,0.26805001,0.24195,9.8560505,1779992561448
883089881,3,0.22500001,0.24195,9.906,1779992561458
883089891,3,0.30795002,0.24705002,9.837001,1779992561467
883089901,3,0.35595003,0.22305001,9.83895,1779992561477
883089911,3,0.28005,0.23295002,9.949051,1779992561489
883089921,3,0.35595003,0.216,9.837001,1779992561498
883089931,3,0.39195,0.21105,9.87495,1779992561509
883089942,3,0.33,0.216,9.94005,1779992561519
883089952,3,0.36105,0.19005,9.8869505,1779992561528
883089962,3,0.39495003,0.20700002,9.8560505,1779992561538
883089972,3,0.34695002,0.192,9.95205,1779992561549
883089982,3,0.34695002,0.22095,9.880051,1779992561559
883089992,3,0.342,0.22095,9.873,1779992561569
883090002,3,0.32505003,0.21795002,9.916051,1779992561580
883090012,3,0.33,0.24195,9.90795,1779992561589
883090022,3,0.33195,0.23805001,9.898951,1779992561599
883090032,3,0.294,0.27405003,9.95205,1779992561609
883090042,3,0.31095,0.25905,9.898951,1779992561618
883090052,3,0.31095,0.27405003,9.94005,1779992561629
883090062,3,0.30795002,0.28095,9.931951,1779992561638
883090073,3,0.33900002,0.28605002,9.904051,1779992561649
883090083,3,0.31800002,0.30705002,9.925051,1779992561660
883090093,3,0.31995,0.30705002,9.97095,1779992561670
883090103,3,0.36600003,0.30900002,9.904051,1779992561679
883090113,3,0.37500003,0.29700002,9.934951,1779992561690
883090123,3,0.38505003,0.28800002,9.942,1779992561701
883090133,3,0.41805002,0.28605002,9.9199505,1779992561709
883090143,3,0.42795002,0.27600002,9.92805,1779992561721
883090153,3,0.44205,0.25005,9.934951,1779992561730
883090163,3,0.462,0.24495001,9.94005,1779992561741
883090173,3,0.45000002,0.22995001,9.946951,1779992561749
883090183,3,0.49005002,0.21405001,9.925051,1779992561760
883090193,3,0.462,0.22305001,9.949051,1779992561770
883090203,3,0.48105,0.22095,9.934951,1779992561781
883090214,3,0.49005002,0.21795002,9.916051,1779992561791
883090224,3,0.45705003,0.22095,9.918,1779992561800
883090234,3,0.44205,0.22305001,9.94005,1779992561811
883090244,3,0.47100002,0.21105,9.916051,1779992561820
883090254,3,0.42600003,0.21795002,9.925051,1779992561830
883090264,3,0.41805002,0.21795002,9.92805,1779992561842
883090274,3,0.44700003,0.216,9.86505,1779992561850
883090284,3,0.43500003,0.22305001,9.880051,1779992561861
883090294,3,0.42600003,0.20895001,9.937051,1779992561872
883090304,3,0.43995002,0.22305001,9.861,1779992561882
883090314,3,0.42795002,0.216,9.882001,1779992561890
883090324,3,0.44205,0.25005,9.892051,1779992561902
883090334,3,0.46905002,0.20895001,9.894,1779992561911
883090344,3,0.49995002,0.22800002,9.906,1779992561921
883090355,3,0.462,0.23505001,9.870001,1779992561932
883090365,3,0.47400004,0.22995001,9.949051,1779992561942
883090375,3,0.57900006,0.25005,9.762,1779992561952
883090385,3,0.53595,0.21405001,9.95895,1779992561961
883090395,3,0.53295004,0.22605,9.861,1779992561971
883090405,3,0.59805006,0.22605,9.837001,1779992561982
883090415,3,0.60795003,0.22800002,9.858001,1779992561993
883090425,3,0.57900006,0.22995001,9.925051,1779992562001
883090435,3,0.62700003,0.23505001,9.772051,1779992562012
883090445,3,0.62205005,0.20700002,9.904051,1779992562022
883090455,3,0.61200005,0.22800002,9.82005,1779992562031
883090465,3,0.60795003,0.264,9.814951,1779992562042
883090475,3,0.59295005,0.27600002,9.80595,1779992562052
883090485,3,0.59295005,0.25905,9.861,1779992562062
883090496,3,0.60300004,0.27795002,9.774,1779992562072
883090506,3,0.56205004,0.3,9.825001,1779992562082
883090516,3,0.57195,0.30900002,9.81,1779992562093
883090526,3,0.57900006,0.31395,9.786,1779992562103
883090536,3,0.56700003,0.28800002,9.83205,1779992562113
883090546,3,0.58605003,0.28800002,9.82905,1779992562122
883090556,3,0.60300004,0.30195,9.733951,1779992562133
883090566,3,0.59295005,0.28995,9.84105,1779992562143
883090576,3,0.63600004,0.27795002,9.774,1779992562153
883090586,3,0.63600004,0.25005,9.801001,1779992562162
883090596,3,0.64605004,0.24000001,9.784051,1779992562174
883090606,3,0.675,0.22305001,9.790951,1779992562182
883090616,3,0.651,0.22995001,9.760051,1779992562193
883090627,3,0.72495,0.17805001,9.748051,1779992562204
883090637,3,0.77805007,0.17295001,9.966001,1779992562213
883090647,3,0.75105006,0.19500001,9.733951,1779992562224
883090657,3,0.79200006,0.22305001,9.745951,1779992562234
883090667,3,0.735,0.10395,9.75,1779992562244
883090677,3,0.80205005,0.16095,9.83205,1779992562255
883090687,3,0.804,0.216,9.646951,1779992562267
883090697,3,0.76305,0.19500001,9.901051,1779992562274
883090707,3,0.77805007,0.20400001,9.70005,1779992562283
883090717,3,0.78000003,0.20895001,9.798,1779992562293
883090727,3,0.70095,0.22605,9.78195,1779992562303
883090737,3,0.74205005,0.264,9.778951,1779992562314
883090747,3,0.75405,0.26895002,9.71895,1779992562325
883090757,3,0.67695004,0.25005,9.885,1779992562334
883090768,3,0.69900006,0.28095,9.738001,1779992562345
883090778,3,0.69405,0.30195,9.78195,1779992562354
883090788,3,0.64395005,0.28605002,9.801001,1779992562365
883090798,3,0.63405,0.321,9.846001,1779992562375
883090808,3,0.67200005,0.30900002,9.801001,1779992562384
883090818,3,0.61995006,0.30495003,9.82005,1779992562395
883090828,3,0.67200005,0.27105,9.769951,1779992562405
883090838,3,0.66705,0.27795002,9.81,1779992562415
883090848,3,0.66495,0.26205,9.83205,1779992562424
883090858,3,0.69105005,0.27795002,9.814951,1779992562434
883090868,3,0.69900006,0.25695002,9.814951,1779992562446
883090878,3,0.68895006,0.22095,9.873,1779992562455
883090888,3,0.72,0.22095,9.79605,1779992562466
883090898,3,0.735,0.24495001,9.8560505,1779992562474
883090909,3,0.72495,0.216,9.849001,1779992562485
883090919,3,0.744,0.20700002,9.84105,1779992562495
883090929,3,0.77805007,0.20205002,9.834001,1779992562505
883090939,3,0.735,0.19905001,9.858001,1779992562515
883090949,3,0.75600004,0.20895001,9.784051,1779992562525
883090959,3,0.735,0.21105,9.87495,1779992562537
883090969,3,0.70305,0.22605,9.880051,1779992562546
883090979,3,0.70095,0.22800002,9.870001,1779992562555
883090989,3,0.675,0.22305001,9.904051,1779992562566
883090999,3,0.684,0.23805001,9.892051,1779992562577
883091009,3,0.65295005,0.23505001,9.90795,1779992562586
883091019,3,0.67200005,0.25905,9.8869505,1779992562597
883091029,3,0.65595,0.24495001,9.8890505,1779992562606
883091039,3,0.65295005,0.252,9.892051,1779992562615
883091050,3,0.651,0.26205,9.901051,1779992562626
883091060,3,0.62895006,0.25005,9.904051,1779992562636
883091070,3,0.61995006,0.25905,9.922951,1779992562646
883091080,3,0.61995006,0.26595002,9.96405,1779992562657
883091090,3,0.64395005,0.25905,9.922951,1779992562666
883091100,3,0.64095,0.24495001,9.925051,1779992562676
883091110,3,0.68205005,0.25005,9.92805,1779992562686
883091120,3,0.65595,0.22995001,9.937051,1779992562696
883091130,3,0.69600004,0.24000001,9.918,1779992562707
883091140,3,0.70605004,0.23295002,9.931951,1779992562718
883091150,3,0.675,0.24195,9.92805,1779992562728
883091160,3,0.69600004,0.23295002,9.942,1779992562737
883091170,3,0.68205005,0.252,9.954,1779992562748
883091180,3,0.67005,0.25905,9.946951,1779992562757
883091191,3,0.66495,0.25905,9.96105,1779992562767
883091201,3,0.651,0.26895002,9.95895,1779992562778
883091211,3,0.63195,0.26895002,9.967951,1779992562788
883091221,3,0.61200005,0.28095,9.954,1779992562797
883091231,3,0.58395004,0.29505002,9.99495,1779992562808
883091241,3,0.57405,0.30705002,9.96105,1779992562817
883091251,3,0.57405,0.30900002,9.95205,1779992562827
883091261,3,0.56505,0.34095,9.943951,1779992562838
883091271,3,0.53595,0.32595003,9.98295,1779992562849
883091281,3,0.52905005,0.32595003,9.95205,1779992562857
883091291,3,0.54105,0.324,9.95205,1779992562869
883091301,3,0.52905005,0.321,9.96405,1779992562878
883091311,3,0.531,0.29505002,9.98505,1779992562889
883091322,3,0.55005,0.28605002,9.946951,1779992562899
883091332,3,0.53295004,0.26895002,9.954,1779992562909
883091342,3,0.56505,0.24195,9.96105,1779992562918
883091352,3,0.57405,0.21795002,9.96405,1779992562928
883091362,3,0.56205004,0.19005,9.954,1779992562939
883091372,3,0.59295005,0.15900001,9.954,1779992562948
883091382,3,0.60795003,0.13695,9.949051,1779992562959
883091392,3,0.6,0.12495001,9.943951,1779992562968
883091402,3,0.615,0.120000005,9.92805,1779992562978
883091412,3,0.624,0.09195001,9.89595,1779992562989
883091422,3,0.61695004,0.09195001,9.894,1779992563000
883091432,3,0.615,0.120000005,9.8890505,1779992563010
883091442,3,0.57900006,0.108,9.904051,1779992563019
883091452,3,0.57705003,0.135,9.89595,1779992563030
883091463,3,0.54105,0.135,9.904051,1779992563040
883091473,3,0.53805,0.15405001,9.894,1779992563049
883091483,3,0.50895,0.18705001,9.86295,1779992563059
883091493,3,0.49500003,0.19695,9.934951,1779992563070
883091503,3,0.507,0.216,9.880051,1779992563081
883091513,3,0.47100002,0.21795002,9.85095,1779992563089
883091523,3,0.47400004,0.27795002,9.825001,1779992563099
883091533,3,0.43995002,0.26595002,9.913051,1779992563110
883091543,3,0.462,0.26595002,9.8869505,1779992563119
883091553,3,0.45705003,0.28995,9.786,1779992563130
883091563,3,0.462,0.32595003,9.801001,1779992563140
883091573,3,0.45195,0.32595003,9.861,1779992563151
883091583,3,0.50205004,0.28995,9.81,1779992563160
883091593,3,0.49800003,0.28605002,9.81,1779992563170
883091604,3,0.45900002,0.312,9.79605,1779992563181
883091614,3,0.49005002,0.29700002,9.7890005,1779992563191
883091624,3,0.53805,0.28800002,9.772051,1779992563202
883091634,3,0.51405,0.28800002,9.786,1779992563212
883091644,3,0.49005002,0.321,9.745951,1779992563220
883091654,3,0.50505,0.29700002,9.748051,1779992563230
883091664,3,0.52395004,0.30705002,9.75,1779992563240
883091674,3,0.50205004,0.30495003,9.721951,1779992563250
883091684,3,0.42795002,0.28800002,9.637951,1779992563261
883091694,3,0.49005002,0.30495003,9.813001,1779992563271
883091704,3,0.51900005,0.33105,9.624001,1779992563280
883091714,3,0.411,0.33795002,9.87705,1779992563291
883091724,3,0.39705002,0.324,9.585,1779992563301
883091734,3,0.41805002,0.3,9.73095,1779992563312
883091745,3,0.411,0.28995,9.66705,1779992563322
883091755,3,0.31800002,0.324,9.70995,1779992563332
883091765,3,0.39195,0.324,9.50895,1779992563342
883091775,3,0.37800002,0.30705002,9.64995,1779992563351
883091785,3,0.33,0.324,9.69795,1779992563363
883091795,3,0.34905002,0.27405003,9.616051,1779992563371
883091805,3,0.39195,0.26205,9.585,1779992563381
883091815,3,0.36795002,0.25005,9.736051,1779992563394
883091825,3,0.37995002,0.21795002,9.646951,1779992563402
883091835,3,0.39195,0.19500001,9.576,1779992563411
883091845,3,0.39900002,0.20205002,9.601951,1779992563423
883091855,3,0.40905002,0.16095,9.658951,1779992563432
883091865,3,0.43995002,0.132,9.609,1779992563442
883091876,3,0.43500003,0.14205001,9.559051,1779992563452
883091886,3,0.43500003,0.112950005,9.585,1779992563463
883091896,3,0.45000002,0.112950005,9.628051,1779992563473
883091906,3,0.44205,0.112950005,9.6,1779992563483
883091916,3,0.43305,0.10395,9.56595,1779992563493
883091926,3,0.44205,0.10395,9.51795,1779992563502
883091936,3,0.40695003,0.13905,9.636001,1779992563513
883091946,3,0.40695003,0.15405001,9.592051,1779992563523
883091956,3,0.39000002,0.15105,9.53505,1779992563531
883091966,3,0.37995002,0.171,9.5449505,1779992563543
883091976,3,0.36600003,0.19695,9.621,1779992563554
883091986,3,0.36795002,0.20400001,9.573001,1779992563564
883091996,3,0.34905002,0.20700002,9.540001,1779992563573
883092006,3,0.32295,0.216,9.658951,1779992563583
