icm4n607_acc,iven_sense,2026-05-28_22-10-22.697_Active 10 Pro
imuTimestamp,accuracy(more=better),acc_x[m/s^2],acc_y[m/s^2],acc_z[m/s^2],utcTimestamp(millis)
885954290,3,-0.29205,0.27600002,9.802951,1779995425867
885954300,3,-0.28395,0.27105,9.798,1779995425877
885954310,3,-0.28395,0.26895002,9.81,1779995425887
885954320,3,-0.29205,0.27600002,9.79605,1779995425897
885954331,3,-0.28695002,0.26595002,9.79395,1779995425908
885954341,3,-0.282,0.27600002,9.7890005,1779995425918
885954351,3,-0.28005,0.27105,9.801001,1779995425927
885954361,3,-0.27705002,0.27105,9.802951,1779995425939
885954371,3,-0.294,0.27600002,9.790951,1779995425947
885954381,3,-0.28395,0.27405003,9.790951,1779995425956
885954391,3,-0.29595003,0.26895002,9.790951,1779995425967
885954401,3,-0.29595003,0.27105,9.801001,1779995425978
885954411,3,-0.294,0.26595002,9.79605,1779995425987
885954421,3,-0.28695002,0.26595002,9.786,1779995426002
885954431,3,-0.29205,0.27105,9.81,1779995426008
885954441,3,-0.282,0.27795002,9.802951,1779995426018
885954451,3,-0.294,0.28095,9.817051,1779995426028
885954462,3,-0.282,0.27405003,9.79395,1779995426038
885954472,3,-0.28695002,0.26205,9.801001,1779995426048
885954482,3,-0.27495003,0.28095,9.79395,1779995426058
885954492,3,-0.27705002,0.264,9.798,1779995426069
885954502,3,-0.28695002,0.27105,9.79395,1779995426080
885954512,3,-0.282,0.27405003,9.80595,1779995426089
885954522,3,-0.282,0.26895002,9.81,1779995426099
885954532,3,-0.28905,0.28095,9.801001,1779995426111
885954542,3,-0.28005,0.27795002,9.801001,1779995426120
885954552,3,-0.28005,0.27600002,9.79395,1779995426130
885954562,3,-0.27495003,0.28305,9.79395,1779995426140
885954572,3,-0.29205,0.26595002,9.80805,1779995426150
885954582,3,-0.28395,0.26205,9.798,1779995426160
885954592,3,-0.28395,0.27405003,9.798,1779995426170
885954603,3,-0.28695002,0.27795002,9.80595,1779995426180
885954613,3,-0.28905,0.27600002,9.802951,1779995426191
885954623,3,-0.28395,0.28095,9.81,1779995426201
885954633,3,-0.28005,0.28305,9.80595,1779995426211
885954643,3,-0.28905,0.27405003,9.81,1779995426221
885954653,3,-0.28395,0.27600002,9.81,1779995426231
885954663,3,-0.282,0.28095,9.802951,1779995426241
885954673,3,-0.28905,0.27600002,9.81,1779995426252
885954683,3,-0.29595003,0.264,9.801001,1779995426261
885954693,3,-0.29205,0.27405003,9.814951,1779995426271
885954703,3,-0.28005,0.28305,9.80805,1779995426282
885954713,3,-0.28695002,0.27105,9.81,1779995426292
885954723,3,-0.28395,0.27600002,9.79605,1779995426302
885954733,3,-0.28005,0.26895002,9.798,1779995426312
885954744,3,-0.28695002,0.27105,9.802951,1779995426321
885954754,3,-0.28905,0.26895002,9.79605,1779995426331
885954764,3,-0.282,0.26895002,9.802951,1779995426341
885954774,3,-0.282,0.27795002,9.80595,1779995426351
885954784,3,-0.29205,0.27795002,9.817051,1779995426363
885954794,3,-0.28395,0.264,9.798,1779995426373
885954804,3,-0.27705002,0.27795002,9.8220005,1779995426382
885954814,3,-0.26805001,0.27105,9.79395,1779995426393
885954824,3,-0.28695002,0.27405003,9.81,1779995426402
885954834,3,-0.282,0.27600002,9.79605,1779995426412
885954844,3,-0.28395,0.26595002,9.813001,1779995426421
885954854,3,-0.29595003,0.27105,9.798,1779995426431
885954864,3,-0.282,0.28305,9.814951,1779995426442
885954875,3,-0.28695002,0.27600002,9.798,1779995426452
885954885,3,-0.28395,0.264,9.80595,1779995426463
885954895,3,-0.294,0.27405003,9.786,1779995426473
885954905,3,-0.29205,0.28305,9.79605,1779995426482
885954915,3,-0.282,0.26895002,9.82005,1779995426493
885954925,3,-0.27195,0.27105,9.81,1779995426502
885954935,3,-0.27495003,0.27600002,9.80595,1779995426513
885954945,3,-0.294,0.27105,9.78195,1779995426524
885954955,3,-0.28905,0.27795002,9.813001,1779995426532
885954965,3,-0.28395,0.264,9.80595,1779995426542
885954975,3,-0.27195,0.25695002,9.81,1779995426553
885954985,3,-0.28395,0.252,9.81,1779995426563
885954995,3,-0.27705002,0.26205,9.7890005,1779995426573
885955005,3,-0.30105,0.28800002,9.814951,1779995426583
885955016,3,-0.29595003,0.28605002,9.83205,1779995426593
885955026,3,-0.28695002,0.26895002,9.798,1779995426603
885955036,3,-0.28005,0.27405003,9.80805,1779995426614
885955046,3,-0.30105,0.25905,9.80805,1779995426623
885955056,3,-0.294,0.30705002,9.774,1779995426634
885955066,3,-0.27705002,0.27600002,9.83895,1779995426644
885955076,3,-0.28005,0.25395,9.837001,1779995426653
885955086,3,-0.30405003,0.28305,9.837001,1779995426663
885955096,3,-0.282,0.28095,9.790951,1779995426674
885955106,3,-0.30600002,0.312,9.81,1779995426684
885955116,3,-0.27,0.27600002,9.82905,1779995426693
885955126,3,-0.28005,0.22095,9.7890005,1779995426704
885955136,3,-0.294,0.30195,9.7890005,1779995426715
885955146,3,-0.26295,0.27795002,9.802951,1779995426724
885955157,3,-0.26295,0.27405003,9.83895,1779995426736
885955167,3,-0.28005,0.25695002,9.738001,1779995426744
885955177,3,-0.27,0.26895002,9.84405,1779995426757
885955187,3,-0.28905,0.27600002,9.798,1779995426766
885955197,3,-0.28395,0.27105,9.774,1779995426775
885955207,3,-0.29205,0.27405003,9.861,1779995426785
885955217,3,-0.28695002,0.25695002,9.774,1779995426795
885955227,3,-0.294,0.25395,9.80805,1779995426805
885955237,3,-0.33,0.31695002,9.910951,1779995426815
885955247,3,-0.22500001,0.21105,9.70695,1779995426826
885955257,3,-0.31095,0.28095,9.825001,1779995426835
885955267,3,-0.27,0.26595002,9.79395,1779995426846
885955277,3,-0.26805001,0.25905,9.777,1779995426856
885955288,3,-0.294,0.28800002,9.84105,1779995426866
885955298,3,-0.26805001,0.252,9.78195,1779995426876
885955308,3,-0.25095,0.28800002,9.79395,1779995426886
885955318,3,-0.14595,0.41205,9.802951,1779995426896
885955328,3,0.033,0.57795,9.81,1779995426906
885955338,3,0.17205001,0.64005005,9.8560505,1779995426916
885955348,3,0.23205002,0.693,9.82905,1779995426926
885955358,3,0.26805001,0.70695,9.79395,1779995426936
885955368,3,0.22005,0.71400005,9.784051,1779995426946
885955378,3,0.15495001,0.68100005,9.790951,1779995426956
885955388,3,0.097950004,0.606,9.81,1779995426967
885955398,3,0.079050004,0.56595004,9.81,1779995426977
885955408,3,0.07395,0.59400004,9.765,1779995426985
885955418,3,0.069000006,0.62805,9.80595,1779995426997
885955429,3,0.055050004,0.633,9.817051,1779995427007
885955439,3,0.043050002,0.573,9.774,1779995427017
885955449,3,0.00405,0.51105005,9.82905,1779995427027
885955459,3,-0.049950004,0.49095002,9.813001,1779995427037
885955469,3,-0.097950004,0.40800002,9.769951,1779995427045
885955479,3,-0.16695,0.31905,9.798,1779995427056
885955489,3,-0.201,0.28800002,9.82905,1779995427065
885955499,3,-0.21300001,0.33105,9.81,1779995427077
885955509,3,-0.165,0.43605003,9.78195,1779995427087
885955519,3,-0.14805001,0.47700003,9.79605,1779995427096
885955529,3,-0.16005,0.42405003,9.79395,1779995427107
885955539,3,-0.21705002,0.37605003,9.80595,1779995427117
885955549,3,-0.28005,0.312,9.814951,1779995427126
885955559,3,-0.351,0.20700002,9.80805,1779995427137
885955570,3,-0.411,0.132,9.8560505,1779995427146
885955580,3,-0.48795003,0.04605,9.84105,1779995427165
885955590,3,-0.531,-0.07005,9.80595,1779995427169
885955600,3,-0.648,-0.21900001,9.834001,1779995427178
885955610,3,-0.79905003,-0.37695003,9.84405,1779995427186
885955620,3,-0.78195006,-0.58005005,9.772051,1779995427197
885955630,3,-0.80205005,-0.84105,9.784051,1779995427207
885955640,3,-0.90195006,-1.263,9.870001,1779995427216
885955650,3,-1.0309501,-1.9399501,9.83895,1779995427226
885955660,3,-0.94995004,-2.2369502,9.913051,1779995427235
885955670,3,-0.55695003,-1.93305,9.70995,1779995427246
885955680,3,-0.55695003,-1.1380501,9.80805,1779995427257
885955690,3,-0.54105,-1.06095,9.906,1779995427266
885955700,3,-0.57195,-1.2360001,9.52305,1779995427277
885955711,3,-0.61995006,-1.626,9.82695,1779995427288
885955721,3,-0.56205004,-2.2350001,9.738001,1779995427298
885955731,3,-0.24105,-2.6580002,9.70005,1779995427309
885955741,3,0.23895001,-2.32995,9.999001,1779995427319
885955751,3,0.62700003,-1.77495,9.561001,1779995427330
885955761,3,-0.16905001,-1.3939501,10.167001,1779995427339
885955771,3,-2.2050002,-2.4430501,10.372951,1779995427349
885955781,3,-4.479,-6.25395,9.36705,1779995427358
885955791,3,-7.1509504,-11.503051,9.172951,1779995427370
885955801,3,-9.030001,-11.28495,11.90505,1779995427379
885955811,3,-10.017,-10.309951,8.769,1779995427388
885955821,3,-10.77795,-8.59095,9.139951,1779995427400
885955831,3,-10.809001,-7.0680003,11.08905,1779995427410
885955842,3,-10.72605,-5.27505,9.97095,1779995427419
885955852,3,-9.97605,-2.838,10.464001,1779995427430
885955862,3,-9.34605,-0.65205,9.01095,1779995427439
885955872,3,-8.86005,-0.03195,10.12905,1779995427450
885955882,3,-8.133,-0.087000005,9.42,1779995427459
885955892,3,-8.049001,0.30705002,10.950001,1779995427470
885955902,3,-7.3879504,0.61395,9.56595,1779995427480
885955912,3,-7.0459504,0.79305005,9.99495,1779995427488
885955922,3,-6.543,0.87705004,10.033051,1779995427500
885955932,3,-6.09,0.94605005,9.1380005,1779995427510
885955942,3,-5.90805,1.24605,10.002001,1779995427519
885955952,3,-5.44395,1.401,9.87495,1779995427531
885955962,3,-5.07495,1.5300001,9.693001,1779995427540
885955972,3,-4.7059503,1.6530001,9.784051,1779995427550
885955983,3,-4.4620504,1.83,10.18605,1779995427561
885955993,3,-4.17705,1.9039501,10.134001,1779995427570
885956003,3,-3.8419502,1.9159501,9.20205,1779995427581
885956013,3,-3.6700501,2.148,10.02795,1779995427591
885956023,3,-3.4350002,2.256,10.086,1779995427601
885956033,3,-3.21495,2.2459502,9.561001,1779995427611
885956043,3,-3.11205,2.361,9.918,1779995427621
885956053,3,-2.9659503,2.5120502,10.239,1779995427631
885956063,3,-2.7889502,2.3850002,9.52095,1779995427641
885956073,3,-2.6449502,2.436,9.646951,1779995427651
885956083,3,-2.667,2.5170002,10.213051,1779995427662
885956093,3,-2.53305,2.436,9.595051,1779995427672
885956103,3,-2.4460502,2.4430501,9.640051,1779995427684
885956113,3,-2.43195,2.5170002,10.01895,1779995427699
885956124,3,-2.4510002,2.493,9.913051,1779995427701
885956134,3,-2.35995,2.4880502,9.801001,1779995427713
885956144,3,-2.26395,2.424,9.592051,1779995427722
885956154,3,-2.26005,2.3830502,9.64305,1779995427731
885956164,3,-2.3050501,2.4739501,10.1650505,1779995427743
885956174,3,-2.3050501,2.49495,10.095,1779995427752
885956184,3,-2.29605,2.3779502,9.71895,1779995427763
885956194,3,-2.49405,2.2800002,9.93,1779995427773
885956204,3,-2.463,1.8079501,9.777,1779995427784
885956214,3,-2.19705,1.4629501,9.37905,1779995427793
885956224,3,-2.0320501,1.4080501,10.035001,1779995427803
885956234,3,-2.05095,1.4989501,10.098001,1779995427813
885956244,3,-1.9150501,1.437,9.38895,1779995427823
885956255,3,-1.95105,1.7389501,10.033051,1779995427833
885956265,3,-1.9099501,1.5330001,9.75,1779995427843
885956275,3,-1.8430501,1.7050501,9.946951,1779995427853
885956285,3,-1.8070501,1.84395,9.66705,1779995427863
885956295,3,-1.77795,2.1049502,10.059,1779995427873
885956305,3,-1.10595,1.5660001,9.937051,1779995427883
885956315,3,0.079050004,-0.16605,9.492001,1779995427893
885956325,3,-0.15495001,0.12495001,9.880051,1779995427903
885956335,3,-0.36795002,0.36900002,10.011001,1779995427914
885956345,3,0.00405,0.123,9.576,1779995427923
885956355,3,-0.42795002,0.45795003,9.774,1779995427933
885956365,3,-0.24795002,0.22095,10.17405,1779995427943
885956375,3,-0.25305,0.31695002,9.540001,1779995427955
885956385,3,-0.25605002,0.19695,9.99495,1779995427964
885956396,3,-0.282,0.321,9.669001,1779995427973
885956406,3,-0.28905,0.36495003,9.66705,1779995427984
885956416,3,-0.31605002,0.19500001,9.925051,1779995427993
885956426,3,-0.27705002,0.22995001,9.849001,1779995428003
885956436,3,-0.28395,0.29700002,9.906,1779995428014
885956446,3,-0.294,0.28995,9.8220005,1779995428023
885956456,3,-0.22500001,0.22095,9.760051,1779995428033
885956466,3,-0.22005,0.25905,9.727051,1779995428043
885956476,3,-0.201,0.22995001,9.729,1779995428053
885956486,3,-0.294,0.216,9.931951,1779995428064
885956496,3,-0.39195,-0.03195,9.86295,1779995428074
885956506,3,-0.50505,-0.372,9.7240505,1779995428084
885956516,3,-0.74895006,-0.83595,9.882001,1779995428094
885956526,3,-1.00695,-0.94395006,9.798,1779995428105
885956537,3,-1.6129501,0.060000002,9.834001,1779995428115
885956547,3,-2.19,1.4610001,9.910951,1779995428125
885956557,3,-2.3359501,2.38995,9.717,1779995428135
885956567,3,-2.367,2.8519502,9.868051,1779995428145
885956577,3,-2.1090002,2.56005,9.931951,1779995428155
885956587,3,-1.70895,1.485,9.741,1779995428165
885956597,3,-1.4140501,0.44595003,9.846001,1779995428175
885956607,3,-1.0390501,-0.19695,9.79605,1779995428185
885956617,3,-0.76305,-0.41505003,9.765,1779995428196
885956627,3,-0.58095,-0.28305,9.693001,1779995428205
885956637,3,-0.49500003,0.15900001,9.82905,1779995428215
885956647,3,-0.45000002,0.54405004,9.772051,1779995428225
885956657,3,-0.24105,0.53505003,9.753,1779995428235
885956668,3,-0.11895001,0.36195,9.765,1779995428246
885956678,3,-0.13395001,0.33600003,9.87495,1779995428256
885956688,3,-0.39000002,0.85995007,9.934951,1779995428266
885956698,3,-0.92100006,1.6999501,9.82695,1779995428276
885956708,3,-1.1850001,1.96395,9.6,1779995428286
885956718,3,-1.1200501,1.5880501,9.79605,1779995428296
885956728,3,-0.93105006,0.99705005,10.144951,1779995428306
885956738,3,-0.98100007,0.70695,9.83895,1779995428317
885956748,3,-1.18005,0.55095005,9.754951,1779995428326
885956758,3,-1.26405,0.61095005,9.79395,1779995428337
885956768,3,-1.23195,0.71400005,9.66195,1779995428346
885956778,3,-1.06305,0.75495005,9.82905,1779995428356
885956788,3,-0.924,0.786,9.85305,1779995428367
885956798,3,-0.85395,0.91995007,9.892051,1779995428376
885956809,3,-0.79005,0.98700005,9.87705,1779995428385
885956819,3,-0.88500005,1.02795,9.89595,1779995428397
885956829,3,-0.83295006,1.21395,9.658951,1779995428407
885956839,3,-0.76305,1.179,9.778951,1779995428417
885956849,3,-0.92805004,1.0009501,9.790951,1779995428427
885956859,3,-0.90405005,0.64500004,9.760051,1779995428437
885956869,3,-0.87795,0.36,9.86295,1779995428447
885956879,3,-0.87795,0.27105,9.85095,1779995428457
885956889,3,-1.0170001,0.28995,10.063951,1779995428467
885956899,3,-1.13205,0.42900002,9.778951,1779995428476
885956909,3,-1.0669501,0.48705003,9.456,1779995428487
885956919,3,-0.97905004,0.333,9.717,1779995428496
885956929,3,-0.92100006,0.18495001,9.910951,1779995428506
885956939,3,-0.88995004,0.17805001,9.79395,1779995428517
885956950,3,-0.924,0.26205,9.774,1779995428526
885956960,3,-0.89295006,0.38595003,9.955951,1779995428536
885956970,3,-0.83505005,0.46500003,9.801001,1779995428546
885956980,3,-0.79905003,0.48705003,9.70005,1779995428556
885956990,3,-0.69600004,0.42000002,9.79605,1779995428567
885957000,3,-0.62700003,0.44805002,9.966001,1779995428576
885957010,3,-0.68205005,0.53505003,9.967951,1779995428586
885957020,3,-0.68700004,0.59205,9.69795,1779995428596
885957030,3,-0.555,0.58500004,9.66405,1779995428606
885957040,3,-0.31800002,0.52695,9.765,1779995428617
885957050,3,0.076050006,0.135,9.801001,1779995428627
885957060,3,0.40695003,0.01305,9.93,1779995428637
885957070,3,0.68700004,0.123,9.73095,1779995428646
885957081,3,0.864,0.216,9.885,1779995428657
885957091,3,0.99105006,0.20205002,9.81,1779995428669
885957101,3,1.28805,-0.043950003,9.645,1779995428678
885957111,3,1.5319501,-0.19995001,9.772051,1779995428689
885957121,3,1.7160001,-0.33405003,9.83895,1779995428699
885957131,3,1.7539501,-0.37905002,9.925051,1779995428709
885957141,3,1.608,-0.381,9.814951,1779995428720
885957151,3,1.3909501,-0.312,9.636001,1779995428729
885957161,3,1.146,-0.10395,9.71205,1779995428739
885957171,3,1.07505,0.010050001,9.766951,1779995428750
885957181,3,1.28295,-0.31395,9.79605,1779995428763
885957191,3,1.6060501,-0.89595,9.80595,1779995428768
885957201,3,1.83105,-1.35405,9.75,1779995428780
885957211,3,1.8600001,-1.6030501,9.95895,1779995428790
885957222,3,1.695,-1.4490001,9.68295,1779995428799
885957232,3,1.50495,-1.3939501,9.798,1779995428810
885957242,3,1.4260501,-1.6980001,9.86505,1779995428820
885957252,3,1.5169501,-2.29005,9.628051,1779995428829
885957262,3,1.8769501,-3.18705,9.937051,1779995428839
885957272,3,1.9960501,-3.7810502,9.51105,1779995428850
885957282,3,2.15895,-4.03305,9.772051,1779995428859
885957292,3,2.8560002,-5.3260503,10.033051,1779995428869
885957302,3,3.5640001,-6.84105,9.954,1779995428880
885957312,3,3.6790502,-8.11995,9.681001,1779995428890
885957322,3,2.73795,-8.886001,9.61905,1779995428900
885957332,3,1.5679501,-11.028001,9.291,1779995428911
885957342,3,0.81600004,-15.364051,10.371,1779995428920
885957352,3,-0.77505004,-15.4150505,9.589951,1779995428931
885957363,3,-2.4750001,-9.736051,8.781,1779995428941
885957373,3,-3.03795,-4.059,9.894,1779995428951
885957383,3,-2.3170502,-1.1520001,11.083951,1779995428961
885957393,3,-1.8409501,-2.706,12.83205,1779995428970
885957403,3,-0.88305,-6.91305,7.2720003,1779995428982
885957413,3,-4.695,-6.3960004,8.019,1779995428991
885957423,3,-8.302951,-5.0020504,12.49905,1779995429000
885957433,3,-10.824,-4.425,8.812051,1779995429011
885957443,3,-13.089001,-3.1230001,8.99895,1779995429020
885957453,3,-12.715051,-2.5099502,12.231001,1779995429033
885957463,3,-12.0379505,-2.6149502,9.741,1779995429041
885957473,3,-11.833951,-2.565,8.23995,1779995429051
885957483,3,-11.494051,-2.0670002,11.503051,1779995429061
885957493,3,-10.60305,-1.9879501,10.16895,1779995429071
885957504,3,-9.98805,-1.99995,8.89305,1779995429082
885957514,3,-9.835051,-1.64295,10.255951,1779995429092
885957524,3,-9.22395,-1.27695,10.52595,1779995429102
885957534,3,-8.53695,-1.19595,9.45405,1779995429113
885957544,3,-8.03205,-0.96300006,9.23595,1779995429122
885957554,3,-7.7689505,-0.657,10.509001,1779995429133
885957564,3,-7.1920505,-0.48405004,10.114051,1779995429143
885957574,3,-6.6889505,-0.37905002,9.262051,1779995429152
885957584,3,-6.39195,-0.08205,9.564,1779995429162
885957594,3,-6.0739503,0.123,9.922951,1779995429173
885957604,3,-5.6020503,0.48705003,10.516951,1779995429183
885957614,3,-5.2720504,0.666,9.81,1779995429193
885957624,3,-4.92705,0.91995007,9.870001,1779995429203
885957635,3,-4.467,1.1020501,9.967951,1779995429213
885957645,3,-4.1010003,1.22895,9.56805,1779995429223
885957655,3,-3.7750502,1.5090001,9.898951,1779995429233
885957665,3,-3.41595,1.6789501,10.284,1779995429243
885957675,3,-3.0859501,1.7050501,9.81,1779995429253
885957685,3,-2.736,1.8349501,9.18105,1779995429264
885957695,3,-2.5540502,2.08395,10.234051,1779995429273
885957705,3,-2.25705,2.127,10.219951,1779995429283
885957715,3,-1.9560001,2.148,9.319051,1779995429293
885957725,3,-1.7830501,2.28495,9.99705,1779995429303
885957735,3,-1.539,2.28705,9.97095,1779995429314
885957745,3,-1.3279501,2.28495,9.481951,1779995429325
885957755,3,-1.11,2.43105,9.910951,1779995429334
885957765,3,-0.9480001,2.4520502,9.955951,1779995429344
885957776,3,-0.77805007,2.42805,9.613951,1779995429354
885957786,3,-0.53805,2.5500002,9.693001,1779995429363
885957796,3,-0.39900002,2.57205,9.894,1779995429374
885957806,3,-0.22500001,2.63205,9.868051,1779995429383
885957816,3,-0.097950004,2.57205,9.846001,1779995429394
885957826,3,0.057000004,2.5459502,9.817051,1779995429403
885957836,3,0.177,2.4400501,9.67395,1779995429413
885957846,3,0.30405003,2.36595,9.892051,1779995429424
885957856,3,0.43305,2.26095,9.760051,1779995429434
885957866,3,0.51195,2.08395,9.733951,1779995429444
885957876,3,0.58395004,1.9420501,9.82005,1779995429454
885957886,3,0.66705,1.7719501,9.778951,1779995429464
885957896,3,0.73905003,1.53495,9.717,1779995429474
885957906,3,0.69600004,1.30095,9.81,1779995429485
885957917,3,0.57195,1.047,9.8220005,1779995429495
885957927,3,0.50505,0.79995006,9.748051,1779995429505
885957937,3,0.423,0.73605,9.84405,1779995429514
885957947,3,0.28905,0.58500004,9.774,1779995429525
885957957,3,0.21300001,0.51495004,9.8560505,1779995429535
885957967,3,0.11895001,0.49905002,9.769951,1779995429545
885957977,3,-0.15300001,0.252,9.67395,1779995429555
885957987,3,-0.33495003,0.31395,9.955951,1779995429565
885957997,3,-0.30405003,0.30900002,9.760051,1779995429575
885958007,3,-0.22905001,0.24195,9.765,1779995429585
885958017,3,-0.30600002,0.26205,9.904051,1779995429596
885958027,3,-0.27495003,0.28995,9.757951,1779995429605
885958037,3,-0.25995,0.27105,9.79395,1779995429615
885958048,3,-0.30105,0.3,9.83205,1779995429626
885958058,3,-0.24405001,0.26895002,9.784051,1779995429636
885958068,3,-0.23700002,0.24000001,9.802951,1779995429646
885958078,3,-0.29595003,0.29505002,9.846001,1779995429656
885958088,3,-0.294,0.25695002,9.82005,1779995429666
885958098,3,-0.30405003,0.28800002,9.7890005,1779995429677
885958108,3,-0.246,0.24195,9.80805,1779995429686
885958118,3,-0.27,0.24495001,9.81,1779995429697
885958128,3,-0.25605002,0.32895002,9.817051,1779995429706
885958138,3,-0.27495003,0.25005,9.82005,1779995429717
885958148,3,-0.30795002,0.25395,9.81,1779995429725
885958158,3,-0.23895001,0.28995,9.80805,1779995429736
885958168,3,-0.294,0.25905,9.834001,1779995429747
885958178,3,-0.246,0.30495003,9.75,1779995429758
885958189,3,-0.26805001,0.25005,9.82695,1779995429766
885958199,3,-0.26505002,0.31905,9.769951,1779995429778
885958209,3,-0.23700002,0.25695002,9.79395,1779995429787
885958219,3,-0.21705002,0.333,9.81,1779995429797
885958229,3,-0.21705002,0.36,9.814951,1779995429807
885958239,3,-0.13800001,0.47895002,9.777,1779995429817
885958249,3,0.064050004,0.63705003,9.813001,1779995429827
885958259,3,0.33705002,0.94395006,9.802951,1779995429837
885958269,3,0.591,1.2529501,9.846001,1779995429847
885958279,3,0.76305,1.4610001,9.786,1779995429857
885958289,3,0.804,1.4490001,9.757951,1779995429867
885958299,3,0.735,1.27695,9.817051,1779995429876
885958309,3,0.60495,1.1380501,9.762,1779995429887
885958319,3,0.47595003,1.0489501,9.7240505,1779995429896
885958330,3,0.35595003,0.94605005,9.8220005,1779995429907
885958340,3,0.24900001,0.88905007,9.778951,1779995429917
885958350,3,0.15795001,0.85095006,9.784051,1779995429926
885958360,3,0.10005,0.83595,9.846001,1779995429936
885958370,3,0.061950002,0.82395005,9.79605,1779995429946
885958380,3,0.034950003,0.82695,9.778951,1779995429956
885958390,3,0.049950004,0.89805007,9.84105,1779995429967
885958400,3,0.10005,0.9580501,9.83205,1779995429977
885958410,3,0.08295,0.95595,9.85095,1779995429986
885958420,3,0.040050004,0.89400005,9.870001,1779995429996
885958430,3,-0.057000004,0.77400005,9.78195,1779995430007
885958440,3,-0.43995002,0.75000006,9.717,1779995430017
885958450,3,-0.35595003,0.65895003,9.9199505,1779995430026
885958461,3,-0.36600003,0.64905006,9.601951,1779995430038
885958471,3,-0.35895002,0.61095005,9.834001,1779995430048
885958481,3,-0.38505003,0.59895,9.846001,1779995430059
885958491,3,-0.423,0.51495004,9.721951,1779995430069
885958501,3,-0.43305,0.45495003,9.813001,1779995430079
885958511,3,-0.44505003,0.48405004,9.873,1779995430089
885958521,3,-0.41805002,0.56805,9.814951,1779995430099
885958531,3,-0.41400003,0.55605,9.82695,1779995430109
885958541,3,-0.46605003,0.48900002,9.801001,1779995430119
885958551,3,-0.55695003,0.43395,9.82695,1779995430129
885958561,3,-0.65505004,0.43395,9.861,1779995430139
885958571,3,-0.81795,0.38595003,9.910951,1779995430149
885958581,3,-0.84705,0.47895002,9.769951,1779995430158
885958591,3,-0.91395,0.25695002,9.85305,1779995430169
885958602,3,-1.3980001,-0.21105,9.540001,1779995430179
885958612,3,-1.2589501,0.08400001,9.8869505,1779995430189
885958622,3,-1.09395,0.26895002,10.207951,1779995430199
885958632,3,-1.00995,0.43395,9.564,1779995430210
885958642,3,-1.01205,0.58500004,9.784051,1779995430219
885958652,3,-1.04595,0.64500004,9.870001,1779995430230
885958662,3,-1.029,0.78795004,9.834001,1779995430240
885958672,3,-0.94995004,0.75705004,9.733951,1779995430250
885958682,3,-0.82995003,0.63705003,9.813001,1779995430260
885958692,3,-0.79200006,0.55095005,9.87705,1779995430270
885958702,3,-0.744,0.50100005,9.8560505,1779995430281
885958712,3,-0.64605004,0.33600003,9.861,1779995430291
885958722,3,-0.56895,0.16305001,9.66705,1779995430300
885958732,3,-0.55005,-0.076950006,9.748051,1779995430311
885958743,3,-0.61200005,-0.24495001,9.7890005,1779995430320
885958753,3,-0.67905,-0.40095,9.8220005,1779995430331
885958763,3,-0.75795,-0.45600003,9.83895,1779995430341
885958773,3,-0.80895007,-0.40800002,9.846001,1779995430351
885958783,3,-0.79905003,-0.36195,9.880051,1779995430361
885958793,3,-0.79395,-0.27105,9.748051,1779995430371
885958803,3,-0.74205005,-0.20205002,9.8220005,1779995430381
885958813,3,-0.65295005,-0.15900001,9.80805,1779995430391
885958823,3,-0.54105,-0.079950005,9.82005,1779995430401
885958833,3,-0.45405003,0.08205,9.778951,1779995430412
885958843,3,-0.42795002,0.19905001,9.86295,1779995430421
885958853,3,-0.41805002,0.20895001,9.817051,1779995430431
885958863,3,-0.42105,0.18705001,9.80595,1779995430442
885958873,3,-0.43500003,0.12705001,9.786,1779995430452
885958884,3,-0.48105,0.12495001,9.814951,1779995430462
885958894,3,-0.57195,0.156,9.82905,1779995430471
885958904,3,-0.59595,0.11100001,9.817051,1779995430482
885958914,3,-0.648,0.03195,9.80805,1779995430492
885958924,3,-0.68700004,-0.010050001,9.813001,1779995430502
885958934,3,-0.69600004,-0.03705,9.814951,1779995430512
885958944,3,-0.73005,-0.049050003,9.817051,1779995430522
885958954,3,-0.75795,-0.039,9.82005,1779995430532
885958964,3,-0.74595004,-0.02205,9.814951,1779995430541
885958974,3,-0.71805006,0.052950002,9.8220005,1779995430553
885958984,3,-0.33495003,0.34800002,9.922951,1779995430563
885958994,3,-0.19095,0.22305001,9.670951,1779995430573
885959004,3,-0.31095,0.27105,9.849001,1779995430583
885959015,3,-0.294,0.29295,9.82905,1779995430593
885959025,3,-0.246,0.27600002,9.721951,1779995430603
885959035,3,-0.25605002,0.28800002,9.817051,1779995430613
885959045,3,-0.29205,0.25395,9.87495,1779995430623
885959055,3,-0.27195,0.27600002,9.83205,1779995430633
885959065,3,-0.294,0.27795002,9.801001,1779995430643
885959075,3,-0.30105,0.24705002,9.78195,1779995430653
885959085,3,-0.33195,0.20700002,9.78195,1779995430663
885959095,3,-0.36795002,0.15900001,9.801001,1779995430673
885959105,3,-0.39195,0.18495001,9.85095,1779995430683
885959115,3,-0.41400003,0.112950005,9.765,1779995430693
885959125,3,-0.462,0.01695,9.85095,1779995430703
885959135,3,-0.47400004,-0.043950003,9.81,1779995430713
885959145,3,-0.49500003,-0.09705,9.85095,1779995430723
885959156,3,-0.50895,-0.19695,9.784051,1779995430733
885959166,3,-0.53805,-0.28605002,9.82695,1779995430742
885959176,3,-0.58095,-0.381,9.790951,1779995430754
885959186,3,-0.67200005,-0.50100005,9.798,1779995430763
885959196,3,-0.69600004,-0.50805,9.86295,1779995430773
885959206,3,-0.71505004,-0.43395,9.82905,1779995430783
885959216,3,-0.76995003,-0.36705002,9.825001,1779995430793
885959226,3,-0.81405,-0.28800002,9.80805,1779995430804
885959236,3,-0.83505005,-0.279,9.817051,1779995430814
885959246,3,-0.85695004,-0.32895002,9.8220005,1779995430824
885959256,3,-0.85200006,-0.393,9.82005,1779995430834
885959266,3,-0.897,-0.37395,9.766951,1779995430844
885959276,3,-0.93105006,-0.32895002,9.906,1779995430854
885959286,3,-0.99105006,-0.38595003,9.825001,1779995430865
885959297,3,-1.0390501,-0.432,9.79395,1779995430875
885959307,3,-1.09395,-0.44895002,9.8220005,1779995430885
885959317,3,-1.14195,-0.384,9.7890005,1779995430895
885959327,3,-1.18005,-0.26700002,9.813001,1779995430905
885959337,3,-1.23195,-0.13695,9.846001,1779995430915
885959347,3,-1.2760501,-0.034050003,9.83895,1779995430925
885959357,3,-1.3090501,0.060000002,9.84105,1779995430935
885959367,3,-1.302,0.17295001,9.837001,1779995430945
885959377,3,-1.26795,0.3,9.858001,1779995430956
885959387,3,-1.197,0.36900002,9.8220005,1779995430965
885959397,3,-1.098,0.41205,9.80805,1779995430975
885959407,3,-1.01205,0.43905002,9.75,1779995430985
885959417,3,-0.90705,0.48405004,9.745951,1779995430995
885959428,3,-0.864,0.549,9.9199505,1779995431006
885959438,3,-0.79905003,0.64695,9.778951,1779995431016
885959448,3,-0.70605004,0.786,9.772051,1779995431026
885959458,3,-0.588,0.86700004,9.916051,1779995431036
885959468,3,-0.46905002,0.85800004,9.82695,1779995431045
885959478,3,-0.32295,0.89100003,9.778951,1779995431056
885959488,3,-0.22005,0.94395006,9.790951,1779995431066
885959498,3,-0.19605,1.0009501,9.81,1779995431077
885959508,3,-0.16905001,1.06095,9.790951,1779995431086
885959518,3,-0.102000006,1.07595,9.825001,1779995431097
885959528,3,-0.0139500005,1.00605,9.765,1779995431107
885959538,3,0.0139500005,0.78105,9.802951,1779995431117
885959548,3,-0.00405,0.546,9.82005,1779995431127
885959558,3,0.00405,0.606,9.79605,1779995431137
885959569,3,0.0,0.89805007,9.813001,1779995431147
885959579,3,0.045,1.167,9.79605,1779995431157
885959589,3,0.124050006,1.2889501,9.777,1779995431167
885959599,3,0.22905001,1.3560001,9.79605,1779995431177
885959609,3,0.30600002,1.437,9.762,1779995431187
885959619,3,0.36105,1.6189501,9.82905,1779995431197
885959629,3,0.44205,1.6210501,9.772051,1779995431207
885959639,3,0.53295004,1.65495,9.760051,1779995431217
885959649,3,0.588,1.7149501,9.802951,1779995431226
885959659,3,0.64395005,1.8030001,9.817051,1779995431235
885959669,3,0.65805006,1.69095,9.748051,1779995431246
885959679,3,0.282,0.71400005,9.588,1779995431256
885959689,3,-0.20295002,0.30195,9.946951,1779995431266
885959699,3,-0.23895001,0.70695,9.918,1779995431277
885959710,3,-0.22005,1.1910001,9.798,1779995431287
885959720,3,-0.39705002,1.74405,9.846001,1779995431297
885959730,3,-0.63900006,2.49795,9.89595,1779995431307
885959740,3,-0.84705,3.18705,9.73095,1779995431318
885959750,3,-0.984,3.63,9.834001,1779995431327
885959760,3,-0.90195006,3.7690501,9.942,1779995431337
885959770,3,-0.67905,3.8719501,9.5449505,1779995431345
885959780,3,-0.45195,4.02495,9.82695,1779995431357
885959790,3,-0.19095,4.1329503,9.69795,1779995431367
885959800,3,0.19800001,4.31295,9.78195,1779995431376
885959810,3,0.73005,4.68405,9.946951,1779995431386
885959820,3,1.146,4.7119503,9.67395,1779995431397
885959830,3,0.98595005,4.87305,9.769951,1779995431408
885959841,3,0.44205,4.98495,10.252951,1779995431417
885959851,3,-0.23205002,5.0209503,9.456,1779995431429
885959861,3,-1.113,4.43505,9.97305,1779995431438
885959871,3,-2.15205,2.775,9.22095,1779995431449
885959881,3,-3.1909502,0.46995002,10.384951,1779995431459
885959891,3,-4.137,-0.72105,9.7890005,1779995431469
885959901,3,-4.8910503,-1.4640001,9.339001,1779995431479
885959911,3,-5.9160004,-2.259,10.677,1779995431489
885959921,3,-6.9570003,-2.661,10.258051,1779995431499
885959931,3,-7.3900504,-3.0270002,9.003,1779995431509
885959941,3,-7.5220504,-3.4099503,10.36095,1779995431519
885959951,3,-7.563,-3.4480503,9.880051,1779995431530
885959961,3,-7.017,-3.1369503,9.02295,1779995431539
885959971,3,-6.50895,-2.9190001,11.019,1779995431549
885959982,3,-6.3150005,-2.6509502,9.40995,1779995431559
885959992,3,-5.841,-2.4840002,9.86505,1779995431569
885960002,3,-5.5090504,-2.32095,9.79395,1779995431579
885960012,3,-5.0340004,-2.22,10.110001,1779995431589
885960022,3,-4.644,-2.1100502,9.607051,1779995431600
885960032,3,-4.3639503,-1.9399501,9.990001,1779995431610
885960042,3,-3.8899503,-1.899,10.50195,1779995431620
885960052,3,-3.6100502,-1.7509501,9.184951,1779995431630
885960062,3,-3.3420002,-1.6530001,9.97095,1779995431640
885960072,3,-3.1000502,-1.50705,9.882001,1779995431650
885960082,3,-2.76495,-1.401,9.601951,1779995431660
885960092,3,-2.45805,-1.2859501,9.729,1779995431670
885960102,3,-2.3100002,-1.164,10.057051,1779995431681
885960112,3,-2.01105,-1.09695,10.002001,1779995431691
885960123,3,-1.659,-1.04505,9.64305,1779995431701
885960133,3,-1.4809501,-0.975,9.66705,1779995431711
885960143,3,-1.2349501,-1.0020001,10.258051,1779995431721
885960153,3,-0.97905004,-0.96300006,9.778951,1779995431731
885960163,3,-0.80205005,-0.97305006,9.52095,1779995431740
885960173,3,-0.59595,-1.0999501,10.215,1779995431753
885960183,3,-0.33195,-1.18095,9.68595,1779995431763
885960193,3,-0.08295,-1.296,9.681001,1779995431771
885960203,3,0.16005,-1.35105,9.943951,1779995431782
885960213,3,0.39195,-1.389,9.817051,1779995431792
885960223,3,0.54300004,-1.3920001,9.813001,1779995431801
885960233,3,0.62895006,-1.34895,9.79395,1779995431812
885960243,3,0.96900004,-1.38705,9.78195,1779995431822
885960254,3,2.3029501,-2.02605,9.86505,1779995431832
885960264,3,2.5420501,-2.1679502,9.50895,1779995431841
885960274,3,3.9570003,-3.3379502,9.943951,1779995431853
885960284,3,4.1460004,-3.3100502,9.69795,1779995431862
885960294,3,4.39305,-3.3430502,9.934951,1779995431872
885960304,3,4.40205,-3.039,9.703051,1779995431882
885960314,3,3.8040001,-2.3500502,9.81,1779995431893
885960324,3,2.90595,-1.5469501,9.766951,1779995431903
885960334,3,2.3430002,-0.85605,9.66195,1779995431913
885960344,3,1.8889501,-0.609,9.925051,1779995431923
885960354,3,1.5700501,-0.55905,9.837001,1779995431933
885960364,3,1.4170501,-0.46995002,9.439051,1779995431943
885960374,3,0.282,-0.14895001,10.251,1779995431953
885960384,3,0.102000006,-0.049050003,9.774,1779995431963
885960395,3,0.32295,-0.26895002,9.597,1779995431973
885960405,3,0.53595,-0.58500004,10.15995,1779995431983
885960415,3,0.95205003,-0.846,9.54705,1779995431993
885960425,3,1.3450501,-0.94200003,9.777,1779995432002
885960435,3,1.4620501,-0.85605,9.954,1779995432013
885960445,3,1.3620001,-0.573,9.70005,1779995432024
885960455,3,1.18005,-0.27600002,9.83895,1779995432033
885960465,3,1.16295,-0.14895001,9.762,1779995432042
885960475,3,0.97905004,0.06795,9.8890505,1779995432053
885960485,3,0.76095,0.027,9.457951,1779995432063
885960495,3,0.021000002,1.3579501,10.962001,1779995432073
885960505,3,-1.3260001,3.3739502,8.03895,1779995432083
885960515,3,-0.51705,2.9530501,10.62405,1779995432094
885960525,3,0.99300003,1.08,9.83895,1779995432104
885960536,3,1.3570501,0.16095,9.328951,1779995432114
885960546,3,1.28805,-0.23295002,10.429951,1779995432123
885960556,3,1.6900501,-0.56100005,9.999001,1779995432134
885960566,3,1.9219501,-0.45795003,9.56595,1779995432144
885960576,3,1.7590501,0.08895,9.83895,1779995432153
885960586,3,1.5799501,0.62295,9.86505,1779995432164
885960596,3,1.6710001,0.78405005,9.595051,1779995432173
885960606,3,1.8550501,0.72405005,9.736051,1779995432184
885960616,3,1.9099501,0.72105,9.7890005,1779995432193
885960626,3,1.7689501,0.96300006,9.65505,1779995432204
885960636,3,1.5799501,1.19295,9.757951,1779995432214
885960646,3,1.4239501,1.1740501,9.79605,1779995432224
885960656,3,1.26405,1.09695,9.762,1779995432234
885960666,3,1.06005,1.0350001,9.7890005,1779995432244
885960677,3,0.88500005,0.96795005,9.89595,1779995432255
885960687,3,0.75795,0.95100003,9.966001,1779995432265
885960697,3,0.63900006,0.83400005,9.70995,1779995432275
885960707,3,0.52905005,0.75195,9.601951,1779995432285
885960717,3,0.28905,0.76905006,9.741,1779995432295
885960727,3,0.049950004,0.83100003,9.82695,1779995432305
885960737,3,-0.22500001,0.85305005,9.86295,1779995432315
885960747,3,-0.45705003,0.75000006,9.87495,1779995432326
885960757,3,-0.56700003,0.537,9.846001,1779995432337
885960767,3,-0.66705,0.34095,9.75,1779995432346
885960777,3,-0.768,0.13905,9.8220005,1779995432355
885960787,3,-0.88095003,0.01695,9.745951,1779995432366
885960797,3,-0.97905004,-0.13695,9.79395,1779995432376
885960808,3,-1.0699501,-0.26205,9.906,1779995432386
885960818,3,-1.13205,-0.34605002,9.67395,1779995432396
885960828,3,-1.25205,-0.38895002,9.70995,1779995432406
885960838,3,-1.35195,-0.48000002,10.014001,1779995432416
885960848,3,-1.4140501,-0.48705003,9.8869505,1779995432426
885960858,3,-1.48905,-0.40500003,9.82905,1779995432436
885960868,3,-1.5150001,-0.33600003,9.80805,1779995432446
885960878,3,-1.539,-0.28095,9.813001,1779995432456
885960888,3,-1.5370501,-0.26205,9.837001,1779995432466
885960898,3,-1.48905,-0.36705002,9.814951,1779995432476
885960908,3,-1.4929501,-0.45105,9.729,1779995432486
885960918,3,-1.575,-0.48405004,9.83205,1779995432497
885960928,3,-1.7070001,-0.45600003,9.931951,1779995432506
885960938,3,-1.8240001,-0.33405003,9.846001,1779995432517
885960949,3,-1.9099501,-0.17805001,9.825001,1779995432527
885960959,3,-1.93605,-0.015000001,9.837001,1779995432537
885960969,3,-1.8930001,0.075,9.82905,1779995432546
885960979,3,-1.9120501,0.21405001,9.8890505,1779995432557
885960989,3,-2.0700002,0.49395,9.760051,1779995432567
885960999,3,-2.25705,0.61605,9.79395,1779995432577
885961009,3,-2.5560002,0.882,9.757951,1779995432587
885961019,3,-2.9200501,1.26705,9.74295,1779995432597
885961029,3,-3.3780003,1.6620001,9.74295,1779995432606
885961039,3,-3.1909502,1.7080501,10.042951,1779995432616
885961049,3,-2.9989502,2.811,9.69495,1779995432627
885961059,3,-3.14805,3.525,9.754951,1779995432637
885961069,3,-3.1020002,2.4880502,10.179001,1779995432646
885961079,3,-3.3319502,1.7989501,9.772051,1779995432656
885961090,3,-3.7129502,1.8270001,9.760051,1779995432665
885961100,3,-3.9120002,2.01195,10.19295,1779995432676
885961110,3,-4.10295,1.9450501,9.837001,1779995432686
885961120,3,-4.6920004,1.389,9.561001,1779995432697
885961130,3,-5.8219504,1.1190001,9.987,1779995432707
885961140,3,-7.7590504,2.8279502,9.87495,1779995432717
885961150,3,-9.876,4.083,9.904051,1779995432726
885961160,3,-11.40795,4.40805,10.354051,1779995432737
885961170,3,-12.274951,3.24705,10.33005,1779995432746
885961180,3,-13.555051,1.8870001,10.411051,1779995432757
885961190,3,-14.446051,1.4470501,11.158051,1779995432767
885961200,3,-14.14395,1.03995,6.98505,1779995432777
885961210,3,-13.122001,-1.34595,10.071,1779995432787
885961221,3,-9.92805,-4.5810003,13.76805,1779995432798
885961231,3,-8.556001,-5.1120005,5.1540003,1779995432809
885961241,3,-7.7380505,-5.94105,11.983951,1779995432818
885961251,3,-7.0410004,-5.9170504,10.82505,1779995432829
885961261,3,-6.39405,-5.151,8.05305,1779995432838
885961271,3,-6.2910004,-5.2440004,9.35505,1779995432849
885961281,3,-5.925,-5.39505,11.491051,1779995432858
885961291,3,-5.12505,-5.15595,10.110001,1779995432869
885961301,3,-4.9080005,-4.602,8.023951,1779995432879
885961311,3,-4.8019505,-4.70295,10.744051,1779995432888
885961321,3,-4.08195,-4.875,11.295,1779995432898
885961331,3,-3.5359502,-4.6069503,8.857051,1779995432908
885961341,3,-3.7849503,-4.05405,8.491051,1779995432918
885961351,3,-3.2580001,-4.5880504,12.274051,1779995432929
885961362,3,-2.80305,-4.3369503,8.986951,1779995432939
885961372,3,-2.6520002,-4.05405,9.36495,1779995432949
885961382,3,-2.5780501,-4.09005,10.80195,1779995432959
885961392,3,-1.6009501,-4.5430503,9.292951,1779995432969
885961402,3,5.1780005,-12.429001,8.946,1779995432980
885961412,3,4.905,-11.890051,8.161051,1779995432990
885961422,3,1.9720501,-6.2689505,6.9210005,1779995432999
885961432,3,0.16695,-4.6480503,15.35805,1779995433010
885961442,3,11.070001,-13.665001,15.492001,1779995433019
885961452,3,-1.67295,-2.0689502,8.476951,1779995433030
885961462,3,-1.9560001,-1.524,1.215,1779995433039
885961472,3,-1.7040001,-2.7970502,13.51395,1779995433050
885961482,3,-1.5990001,-2.2150502,11.817,1779995433060
885961492,3,-1.1029501,-1.0830001,9.21195,1779995433070
885961503,3,-1.9150501,-1.2600001,7.6270504,1779995433080
885961513,3,-1.917,-0.89595,11.043,1779995433090
885961523,3,-2.1690001,-0.43695003,11.08905,1779995433101
885961533,3,-2.07495,-0.10605001,8.11005,1779995433110
885961543,3,-1.77795,-0.846,10.5720005,1779995433121
885961553,3,-1.4500501,-0.70500004,10.27005,1779995433131
885961563,3,-1.3399501,-0.06795,8.72805,1779995433141
885961573,3,-0.81105006,-0.28800002,10.378051,1779995433151
885961583,3,-0.91395,-0.279,10.13595,1779995433162
885961593,3,-0.81600004,0.16605,9.849001,1779995433171
885961603,3,-0.040050004,0.22800002,9.427051,1779995433182
885961613,3,-0.10005,0.058050003,9.61905,1779995433192
885961623,3,-0.39900002,0.42900002,9.786,1779995433202
885961634,3,-0.27705002,0.27105,10.18095,1779995433211
885961644,3,-0.19605,0.087000005,9.880051,1779995433221
885961654,3,-0.32295,0.36195,9.745951,1779995433232
885961664,3,-0.39195,0.24705002,9.81,1779995433242
885961674,3,-0.18900001,0.171,9.597,1779995433252
885961684,3,-0.21495001,0.28305,9.84105,1779995433262
885961694,3,-0.32700002,0.35700002,9.931951,1779995433273
885961704,3,-0.12900001,0.50805,9.67905,1779995433283
885961714,3,-0.42795002,-0.15405001,9.99495,1779995433293
885961724,3,-0.39495003,0.29295,9.68805,1779995433303
885961734,3,-0.058950003,0.20895001,9.75,1779995433313
885961744,3,-0.29205,0.28095,10.05,1779995433323
885961754,3,-0.022950001,0.55395,9.658951,1779995433334
885961764,3,0.13395001,0.58995,9.79605,1779995433341
885961775,3,0.36105,0.76395005,9.646951,1779995433352
885961785,3,0.55005,0.89100003,9.868051,1779995433362
885961795,3,0.45900002,0.99195004,10.023001,1779995433372
885961805,3,0.50505,0.94395006,9.715051,1779995433382
885961815,3,0.39900002,0.669,9.66405,1779995433392
885961825,3,0.093,-0.216,9.901051,1779995433404
885961835,3,-0.26295,-1.2360001,9.748051,1779995433413
885961845,3,-0.48795003,-1.04505,9.616051,1779995433423
885961855,3,-0.63600004,-1.0330501,10.240951,1779995433433
885961865,3,-0.711,-1.35405,9.7240505,1779995433443
885961875,3,-0.76995003,-1.5619501,9.658951,1779995433454
885961885,3,-0.84000003,-1.12395,9.784051,1779995433463
885961895,3,-0.90195006,-0.37005,9.97305,1779995433474
885961905,3,-0.79395,0.03705,9.80595,1779995433483
885961916,3,-0.62700003,0.060000002,9.82905,1779995433493
885961926,3,-0.53595,-0.039,9.778951,1779995433503
885961936,3,-0.44205,-0.45600003,9.70995,1779995433513
885961946,3,-0.47100002,-0.76695,9.80595,1779995433523
885961956,3,-0.56205004,-0.85095006,9.892051,1779995433534
885961966,3,-0.675,-0.89895004,9.727051,1779995433543
885961976,3,-0.75600004,-0.87900007,9.882001,1779995433552
885961986,3,-0.864,-0.79095006,9.715051,1779995433564
885961996,3,-0.95505005,-0.62295,9.8220005,1779995433574
885962006,3,-1.01205,-0.42495003,9.79605,1779995433583
885962016,3,-1.02405,-0.23295002,9.837001,1779995433594
885962026,3,-0.99495006,-0.16800001,9.79395,1779995433604
885962036,3,-1.02705,-0.216,9.762,1779995433614
885962047,3,-1.0669501,-0.3,9.84105,1779995433625
885962057,3,-1.1029501,-0.26700002,9.825001,1779995433635
885962067,3,-1.1530501,-0.18300001,9.85305,1779995433644
885962077,3,-1.16505,-0.109050006,9.868051,1779995433655
885962087,3,-1.1179501,0.02205,9.817051,1779995433665
885962097,3,-1.05495,0.094050005,9.813001,1779995433675
885962107,3,-1.0819501,0.076950006,9.772051,1779995433685
885962117,3,-1.09395,0.043950003,9.858001,1779995433695
885962127,3,-1.041,0.02205,9.846001,1779995433705
885962137,3,-0.933,0.025050001,9.837001,1779995433715
885962147,3,-0.80895007,0.12495001,9.80595,1779995433725
885962157,3,-0.75405,0.3,9.774,1779995433734
885962167,3,-0.80205005,0.47505003,9.825001,1779995433745
885962177,3,-0.82095003,0.65400004,9.87705,1779995433755
885962188,3,-0.82500005,0.75195,9.774,1779995433766
885962198,3,-0.804,0.91305006,9.8220005,1779995433776
885962208,3,-0.72300005,1.10895,9.846001,1779995433786
885962218,3,-0.61995006,1.0849501,9.66405,1779995433796
885962228,3,-0.49005002,1.164,9.861,1779995433806
885962238,3,-0.33705002,1.2600001,9.873,1779995433816
885962248,3,-0.18105,1.4110501,9.703051,1779995433826
885962258,3,0.040050004,1.5450001,9.81,1779995433836
885962268,3,0.28905,1.641,9.931951,1779995433847
885962278,3,0.531,1.641,9.63105,1779995433857
885962288,3,0.86595005,1.6500001,9.85095,1779995433866
885962298,3,1.194,1.5469501,9.817051,1779995433877
885962308,3,1.5769501,1.4779501,9.80595,1779995433887
885962318,3,1.8790501,1.437,9.74295,1779995433896
885962329,3,2.121,1.3630501,9.70995,1779995433907
885962339,3,2.25,1.179,9.772051,1779995433917
885962349,3,2.2999501,0.87195003,9.736051,1779995433927
885962359,3,2.04195,0.27105,9.703051,1779995433935
885962369,3,1.24905,-0.43905002,9.765,1779995433945
885962379,3,0.08805001,-0.216,9.721951,1779995433955
885962389,3,-0.39495003,0.3,10.1310005,1779995433965
885962399,3,-0.19095,0.15405001,9.7890005,1779995433977
885962409,3,-0.34905002,0.45795003,9.61905,1779995433986
885962419,3,-0.282,0.18300001,10.030951,1779995433995
885962429,3,-0.32700002,0.34500003,9.658951,1779995434007
885962439,3,-0.24105,0.19695,9.778951,1779995434016
885962449,3,-0.31995,0.36195,9.82695,1779995434026
885962459,3,-0.27495003,0.29505002,9.7890005,1779995434037
885962470,3,-0.30795002,0.24195,9.8869505,1779995434046
885962480,3,-0.22200002,0.28995,9.78195,1779995434057
885962490,3,-0.25305,0.18705001,9.583051,1779995434066
885962500,3,-0.36795002,0.34305,10.102051,1779995434077
885962510,3,-0.28695002,0.25905,9.80595,1779995434086
885962520,3,-0.28395,0.26595002,9.657001,1779995434096
885962530,3,-0.36795002,0.31695002,10.02105,1779995434108
885962540,3,-0.25800002,0.27600002,9.68295,1779995434117
885962550,3,-0.29595003,0.22605,9.757951,1779995434127
885962560,3,-0.25995,0.312,9.87705,1779995434137
885962570,3,-0.22200002,0.22095,9.778951,1779995434147
885962580,3,-0.21495001,0.28800002,9.738001,1779995434157
885962590,3,-0.16005,0.32895002,9.777,1779995434168
885962601,3,-0.045,0.34305,9.837001,1779995434177
885962611,3,0.0139500005,0.34095,9.813001,1779995434189
885962621,3,-0.064050004,0.22800002,9.87705,1779995434198
885962631,3,-0.14805001,0.15105,9.80595,1779995434209
885962641,3,-0.20805001,0.18705001,9.754951,1779995434219
885962651,3,-0.25095,0.18705001,9.78195,1779995434229
885962661,3,-0.17895001,0.21105,9.814951,1779995434239
885962671,3,-0.043050002,0.22995001,9.8560505,1779995434249
885962681,3,0.022950001,0.216,9.834001,1779995434259
885962691,3,0.045,0.21405001,9.74295,1779995434269
885962701,3,-0.049950004,0.28995,9.861,1779995434279
885962711,3,0.055050004,0.51495004,9.741,1779995434289
885962721,3,0.294,0.91005003,9.82695,1779995434299
885962731,3,0.25605002,1.3579501,9.90795,1779995434310
885962742,3,-0.32505003,1.5979501,9.73095,1779995434319
885962752,3,-0.9979501,1.46595,9.79395,1779995434330
885962762,3,-1.66305,1.18095,9.83895,1779995434339
885962772,3,-1.7760001,0.76005006,10.00695,1779995434349
885962782,3,-1.4770501,0.68805003,10.02795,1779995434359
885962792,3,-1.18005,0.63495004,9.71205,1779995434368
885962802,3,-0.73005,0.096,9.738001,1779995434379
885962812,3,-0.22005,-0.846,9.625951,1779995434391
885962822,3,0.351,-1.914,10.102051,1779995434401
885962832,3,0.72,-2.5890002,9.8560505,1779995434411
885962842,3,0.79200006,-2.469,10.288951,1779995434420
885962852,3,0.67200005,-1.9519501,10.96395,1779995434430
885962862,3,0.49305,-1.0830001,12.195001,1779995434441
885962872,3,0.15795001,-0.64005005,12.805051,1779995434451
885962883,3,-0.06705,-0.53895,12.86505,1779995434461
885962893,3,-0.00705,-0.13005,12.118051,1779995434471
885962903,3,0.112050004,0.52305,10.9480505,1779995434481
885962913,3,0.14295001,1.26195,10.573951,1779995434491
885962923,3,-0.39900002,1.83,10.383,1779995434501
885962933,3,-0.933,2.3730001,10.573951,1779995434511
885962943,3,-1.1869501,2.634,10.687051,1779995434521
885962953,3,-1.2280501,2.9020503,10.2289505,1779995434531
885962963,3,-1.12995,2.08395,10.8810005,1779995434541
885962973,3,-0.81105006,1.10895,10.76595,1779995434551
885962983,3,-0.804,0.9889501,10.227,1779995434561
885962993,3,-0.75600004,1.0009501,10.21695,1779995434571
885963003,3,-0.85200006,1.0159501,10.60305,1779995434582
885963014,3,-1.06305,1.1329501,10.95705,1779995434592
885963024,3,-0.92805004,1.4419501,11.383051,1779995434601
885963034,3,-0.36795002,1.8919501,10.33695,1779995434612
885963044,3,-0.076050006,2.421,9.207001,1779995434621
885963054,3,0.109950006,3.1609502,11.7949505,1779995434632
885963064,3,0.09,3.6730502,12.870001,1779995434642
885963074,3,0.043050002,3.85995,12.68805,1779995434653
885963084,3,-0.20505,3.89595,12.324,1779995434663
885963094,3,-0.26505002,4.02,11.689951,1779995434672
885963104,3,-0.26295,3.8479502,11.58195,1779995434682
885963114,3,0.38505003,3.3720002,11.460001,1779995434693
885963124,3,1.2589501,4.011,9.934951,1779995434703
885963134,3,1.1730001,4.31295,7.7779503,1779995434713
885963144,3,2.0299501,4.794,10.675051,1779995434723
885963155,3,1.5439501,5.0719504,9.20895,1779995434733
885963165,3,0.99600005,5.6410503,8.22105,1779995434742
885963175,3,0.744,5.7829504,7.9480505,1779995434761
885963185,3,0.82095003,4.9300504,8.20905,1779995434763
885963195,3,1.0170001,4.69995,8.0119505,1779995434774
885963205,3,1.23,4.9279504,7.2030005,1779995434783
885963215,3,1.5130501,5.0160003,6.6139503,1779995434793
885963225,3,1.7740501,4.65705,6.11595,1779995434803
885963235,3,1.728,4.9399505,5.379,1779995434814
885963245,3,1.3240501,5.3370004,4.7320504,1779995434823
885963255,3,0.84900004,5.74695,4.43505,1779995434835
885963265,3,0.52395004,6.01695,4.02405,1779995434843
885963275,3,0.66,6.2899504,3.5659502,1779995434853
885963285,3,1.01505,6.6589503,3.7530003,1779995434863
885963296,3,1.2349501,6.88605,4.275,1779995434873
885963306,3,1.32105,6.9960003,4.45695,1779995434883
885963316,3,1.0669501,7.1710505,4.2649503,1779995434893
885963326,3,0.44505003,7.52295,3.4390502,1779995434903
885963336,3,-0.17895001,7.8780003,3.1279502,1779995434914
885963346,3,-0.47100002,8.016001,3.2959502,1779995434923
885963356,3,-0.36105,7.9920006,3.3049502,1779995434934
885963366,3,-0.034950003,7.9450502,3.3360002,1779995434944
885963376,3,0.32805002,8.07405,3.4680002,1779995434954
885963386,3,0.23400001,8.328,3.48705,1779995434964
885963396,3,0.025950002,8.364,3.3079503,1779995434974
885963406,3,-0.31995,8.497951,2.8140001,1779995434983
885963416,3,-0.56895,8.514,2.733,1779995434994
885963427,3,-0.615,8.40705,2.19,1779995435005
885963437,3,-0.52395004,8.292001,1.77495,1779995435015
885963447,3,-0.28395,8.07405,1.11705,1779995435025
885963457,3,-0.21495001,7.9159503,0.32700002,1779995435034
885963467,3,-0.38295,8.019,-0.28695002,1779995435045
885963477,3,-0.61695004,7.9279504,-0.79695004,1779995435055
885963487,3,-0.73200005,8.026051,-1.8750001,1779995435065
885963497,3,-0.51705,8.043,-2.7180002,1779995435075
885963507,3,-0.19800001,8.007,-3.522,1779995435085
885963517,3,0.14595,8.148001,-4.164,1779995435095
885963527,3,0.21000001,8.478001,-4.4029503,1779995435107
885963537,3,-0.03795,8.72505,-4.6189504,1779995435116
885963547,3,-0.06705,8.365951,-4.9009504,1779995435125
885963557,3,-0.08295,7.6189504,-4.0609503,1779995435136
885963568,3,0.22695,6.8220005,-3.85995,1779995435146
885963578,3,0.591,6.5340004,-4.3240504,1779995435155
885963588,3,1.09395,6.5800505,-4.8679504,1779995435166
885963598,3,1.5460501,6.6540003,-5.6790004,1779995435176
885963608,3,1.5840001,6.88605,-7.602,1779995435186
885963618,3,1.1340001,7.32705,-9.120001,1779995435196
885963628,3,0.48795003,7.72695,-8.64795,1779995435206
885963638,3,0.40395,7.38,-7.7790003,1779995435218
885963648,3,0.624,5.9740505,-7.8960004,1779995435226
885963658,3,0.78000003,5.21505,-7.9510503,1779995435236
885963668,3,0.90195006,5.2489505,-7.5130506,1779995435247
885963678,3,0.72495,5.2320004,-7.2430506,1779995435257
885963688,3,0.66300005,4.9279504,-7.221,1779995435266
885963698,3,0.78705,4.9759502,-7.5060005,1779995435276
885963709,3,0.80895007,5.14305,-8.286,1779995435286
885963719,3,0.80205005,5.1460505,-8.80395,1779995435296
885963729,3,0.57405,5.1979504,-8.99295,1779995435306
885963739,3,0.28005,5.11695,-9.22305,1779995435318
885963749,3,0.10695001,4.815,-9.294001,1779995435327
885963759,3,-0.045,4.59705,-9.71595,1779995435337
885963769,3,-0.064050004,4.4560504,-10.482,1779995435347
885963779,3,-0.078,4.38705,-10.875001,1779995435357
885963789,3,-0.186,4.38,-11.071051,1779995435366
885963799,3,-0.16905001,4.4230504,-11.404051,1779995435376
885963809,3,-0.30405003,4.43505,-11.253,1779995435385
885963819,3,-0.39705002,4.3390503,-10.843051,1779995435397
885963829,3,-0.35595003,4.1350503,-10.771951,1779995435407
885963840,3,-0.28395,3.903,-10.6380005,1779995435416
885963850,3,-0.109950006,3.5059502,-10.530001,1779995435426
885963860,3,-0.0019500001,3.00495,-10.623,1779995435437
885963870,3,0.15,2.6890502,-10.503,1779995435447
885963880,3,0.37305,2.42595,-10.312051,1779995435457
885963890,3,0.531,2.3490002,-10.11795,1779995435466
885963900,3,0.58095,2.3059502,-9.570001,1779995435477
885963910,3,0.76095,2.15805,-9.538951,1779995435486
885963920,3,0.65805006,2.25795,-9.61305,1779995435496
885963930,3,0.483,2.29695,-9.333,1779995435506
885963940,3,0.63405,1.914,-9.627001,1779995435517
885963950,3,0.984,1.8030001,-9.970051,1779995435527
885963960,3,1.1869501,1.9039501,-9.89505,1779995435537
885963970,3,1.3429501,1.677,-9.94995,1779995435549
885963981,3,1.39995,1.43505,-10.101001,1779995435557
885963991,3,1.21605,1.31295,-10.06305,1779995435569
885964001,3,1.12995,1.19505,-10.009951,1779995435578
885964011,3,1.18005,1.296,-10.077001,1779995435589
885964021,3,1.1770501,1.6170001,-10.033951,1779995435599
885964031,3,1.04595,1.7680501,-10.041,1779995435609
885964041,3,0.85395,1.8060001,-10.045951,1779995435619
885964051,3,0.588,1.746,-10.04895,1779995435629
885964061,3,0.49800003,1.6620001,-9.852,1779995435639
885964071,3,0.56700003,1.52295,-9.76395,1779995435649
885964081,3,0.71505004,1.485,-9.792001,1779995435658
885964091,3,0.90495,1.5469501,-9.90705,1779995435669
885964101,3,1.1730001,1.4989501,-9.864,1779995435679
885964111,3,1.36395,1.32,-9.72105,1779995435689
885964122,3,1.3950001,1.296,-9.699,1779995435699
885964132,3,1.24395,1.3219501,-9.74895,1779995435709
885964142,3,1.09395,1.1520001,-9.694051,1779995435719
885964152,3,1.02405,1.092,-9.59805,1779995435730
885964162,3,1.01505,1.092,-9.856951,1779995435740
885964172,3,1.065,1.11195,-10.156051,1779995435750
885964182,3,0.94005007,1.26195,-10.626,1779995435760
885964192,3,1.0669501,1.5619501,-10.95405,1779995435769
885964202,3,1.09395,2.32305,-10.633051,1779995435780
885964212,3,1.149,3.0919502,-9.89295,1779995435791
885964222,3,1.1730001,3.5320501,-9.712951,1779995435800
885964232,3,0.99600005,3.8170502,-10.24695,1779995435810
885964242,3,0.82605004,4.083,-10.135051,1779995435820
885964252,3,0.38505003,4.34805,-9.0070505,1779995435831
885964263,3,-0.0019500001,4.3819504,-8.04195,1779995435843
885964273,3,-0.117000006,4.90605,-7.9030504,1779995435851
885964283,3,-0.32295,5.754,-7.8940506,1779995435861
885964293,3,-0.27195,6.6520505,-8.19495,1779995435871
885964303,3,-0.010950001,7.0129504,-8.832001,1779995435881
885964313,3,-0.26295,7.0750504,-9.012,1779995435891
885964323,3,-0.342,7.53,-8.35095,1779995435901
885964333,3,-0.23895001,7.9420505,-7.2619505,1779995435911
885964343,3,-0.14295001,8.2560005,-6.3450003,1779995435921
885964353,3,0.10005,8.589001,-5.85405,1779995435932
885964363,3,0.19605,8.718,-5.49195,1779995435942
885964373,3,0.591,8.103001,-6.117,1779995435952
885964383,3,0.78705,7.6720505,-6.02895,1779995435962
885964394,3,0.81600004,7.3339505,-5.4229503,1779995435971
885964404,3,0.87795,7.6500006,-4.6810503,1779995435982
885964414,3,0.77805007,8.34405,-3.62505,1779995435992
885964424,3,0.51705,8.754001,-3.5629501,1779995436002
885964434,3,0.47400004,8.634001,-3.3420002,1779995436012
885964444,3,0.56205004,8.2560005,-2.73,1779995436023
885964454,3,0.57195,7.6500006,-2.25105,1779995436032
885964464,3,0.39705002,7.2120004,-2.2339501,1779995436043
885964474,3,0.531,7.1620502,-1.9729501,1779995436052
885964484,3,0.49800003,7.281,-0.73305005,1779995436062
885964494,3,0.33705002,7.66695,-0.33105,1779995436072
885964504,3,0.010950001,8.392051,-0.60795003,1779995436083
885964514,3,-0.32295,9.205951,-1.197,1779995436093
885964524,3,-0.246,9.999001,-1.31895,1779995436104
885964535,3,-0.22500001,10.49205,-1.2280501,1779995436114
885964545,3,-0.39195,10.48005,-0.78300005,1779995436123
885964555,3,-0.58395004,9.972,-0.30405003,1779995436133
885964565,3,-0.82095003,9.484051,-0.47895002,1779995436143
885964575,3,-0.89505005,9.4150505,-0.61800003,1779995436154
885964585,3,-0.47595003,9.26895,-0.12495001,1779995436163
885964595,3,0.033,9.261001,0.61905,1779995436173
885964605,3,0.50895,9.490951,0.078,1779995436183
885964615,3,0.61695004,9.86205,-0.10305001,1779995436193
885964625,3,0.59805006,10.00605,0.20505,1779995436203
885964635,3,0.65595,9.451051,0.99195004,1779995436213
885964645,3,0.82995003,8.95005,1.6129501,1779995436224
885964655,3,0.77805007,8.625,2.23005,1779995436234
885964665,3,0.92595005,7.7359505,2.8260002,1779995436243
885964676,3,0.86895007,7.5040503,3.52305,1779995436253
885964686,3,0.32805002,7.3240504,4.926,1779995436264
885964696,3,-0.40695003,7.31505,5.6350503,1779995436274
885964706,3,-1.0030501,6.984,5.7450004,1779995436282
885964716,3,-1.6350001,7.41795,5.5150504,1779995436292
885964726,3,-1.79295,7.1779504,5.781,1779995436303
885964736,3,-1.3950001,6.3840003,6.09,1779995436314
885964746,3,-0.78495,5.7730503,6.60195,1779995436323
885964756,3,0.034950003,5.1529503,6.9760504,1779995436334
885964766,3,0.78495,4.6530004,7.6050005,1779995436344
885964776,3,1.0339501,4.1280003,8.39505,1779995436355
885964786,3,1.06005,3.5389502,8.710951,1779995436365
885964796,3,1.0170001,3.0529501,9.48495,1779995436374
885964807,3,1.0699501,2.799,10.699051,1779995436386
885964817,3,1.02705,2.91,10.95705,1779995436395
885964827,3,1.06005,3.1060503,10.864051,1779995436404
885964837,3,1.05795,3.2260501,10.557,1779995436415
885964847,3,0.83295006,3.2569501,9.93,1779995436426
885964857,3,0.85395,3.01005,8.85495,1779995436434
885964867,3,0.87795,2.7250502,8.21805,1779995436445
885964877,3,1.24695,2.56005,9.207001,1779995436455
885964887,3,1.28805,2.33505,11.20905,1779995436466
885964897,3,1.3429501,1.9039501,12.439051,1779995436475
885964907,3,1.7310001,1.1880001,11.653951,1779995436485
885964917,3,1.8330001,0.66105,10.806001,1779995436495
885964927,3,1.9290001,0.432,9.6,1779995436506
885964937,3,2.1330001,0.37605003,8.580001,1779995436515
885964948,3,1.8690001,0.53895,7.7730002,1779995436526
885964958,3,1.55295,0.87405,7.6699505,1779995436536
885964968,3,1.2280501,1.2019501,8.158051,1779995436546
885964978,3,0.77805007,1.1740501,8.3880005,1779995436556
885964988,3,0.34905002,0.95595,8.6629505,1779995436566
885964998,3,0.28695002,0.915,9.990001,1779995436576
885965008,3,0.30795002,0.75705004,11.043,1779995436586
885965018,3,0.33495003,0.37905002,11.212951,1779995436596
885965028,3,0.30600002,0.05595,11.086051,1779995436606
885965038,3,0.22905001,-0.27105,10.833,1779995436616
885965048,3,-0.009000001,-0.48195,11.19705,1779995436626
885965058,3,-0.37500003,-0.47700003,11.866951,1779995436637
885965068,3,-0.54300004,-0.27405003,12.054001,1779995436646
885965078,3,-0.85905004,0.17295001,11.886001,1779995436657
885965089,3,-1.05795,0.582,12.043951,1779995436667
885965099,3,-1.0510501,0.65895003,12.322051,1779995436677
885965109,3,-1.08405,0.85305005,12.243001,1779995436687
885965119,3,-1.1530501,1.3960501,11.60805,1779995436697
885965129,3,-1.2229501,2.0070002,11.40705,1779995436707
885965139,3,-1.3069501,2.28195,11.995951,1779995436717
885965149,3,-1.3740001,2.3470502,11.677951,1779995436727
885965159,3,-1.2420001,2.3059502,10.774951,1779995436736
885965169,3,-0.95505005,2.364,10.1959505,1779995436746
885965179,3,-1.005,2.5890002,9.870001,1779995436756
885965189,3,-1.3740001,2.7900002,8.991,1779995436767
885965199,3,-1.3570501,2.5549502,8.259001,1779995436778
885965209,3,-0.76095,2.26305,8.14605,1779995436786
885965220,3,-0.351,1.9660501,8.556001,1779995436796
885965230,3,-0.46395,1.5660001,8.51295,1779995436806
885965240,3,-0.53295004,1.1710501,8.472,1779995436817
885965250,3,-0.73005,0.606,8.46195,1779995436827
885965260,3,-0.96195006,0.123,8.40705,1779995436837
885965270,3,-0.71295005,0.010050001,8.93595,1779995436847
885965280,3,-0.39705002,0.15105,9.68595,1779995436857
885965290,3,-0.507,0.633,10.071,1779995436867
885965300,3,-1.314,1.4899501,11.002951,1779995436877
885965310,3,-1.4239501,1.3630501,11.218051,1779995436886
885965320,3,-0.79695004,1.8580501,9.882001,1779995436897
885965330,3,-0.87600005,2.1700501,9.279,1779995436907
885965340,3,-1.23195,1.2070501,10.1310005,1779995436917
885965350,3,-0.88995004,0.010050001,10.366051,1779995436928
885965361,3,-0.61995006,-0.65895003,9.801001,1779995436937
885965371,3,-0.55995005,-1.1400001,8.677951,1779995436950
885965381,3,-0.48600003,-1.4440501,8.920051,1779995436959
885965391,3,-0.04695,-1.09695,10.332001,1779995436969
885965401,3,0.34905002,-1.15695,10.63395,1779995436979
885965411,3,0.58605003,-1.485,10.543051,1779995436989
885965421,3,0.708,-1.8229501,11.14605,1779995436999
885965431,3,0.75405,-2.04795,10.585951,1779995437009
885965441,3,0.71505004,-2.2150502,9.79395,1779995437019
885965451,3,0.73200005,-1.863,9.111,1779995437029
885965461,3,0.72705,-0.84795004,8.022,1779995437039
885965471,3,0.60300004,0.028950002,7.7580004,1779995437049
885965481,3,0.45705003,0.24495001,7.656,1779995437058
885965491,3,0.37305,-0.32595003,7.629,1779995437069
885965502,3,0.45900002,-1.626,7.3300505,1779995437079
885965512,3,0.32505003,-2.95005,9.753,1779995437089
885965522,3,-0.045,-3.9540002,10.383,1779995437098
885965532,3,0.43005002,-4.6410003,7.93095,1779995437112
885965542,3,-1.0510501,-0.89595,5.8980002,1779995437120
885965552,3,-1.3399501,0.50805,6.8200502,1779995437130
885965562,3,-0.0139500005,0.80700004,10.584001,1779995437140
885965572,3,0.16695,-0.48705003,11.722951,1779995437150
885965582,3,-0.08595,-3.5970001,13.33905,1779995437160
885965592,3,0.84495,-5.196,10.383,1779995437170
885965602,3,1.2540001,-5.8759503,8.20905,1779995437180
885965612,3,0.78000003,-5.8000503,9.303,1779995437190
885965622,3,0.28395,-5.3970003,11.307,1779995437200
885965633,3,0.684,-5.09595,10.866,1779995437211
885965643,3,1.302,-4.9420505,10.284,1779995437221
885965653,3,1.4479501,-4.701,10.597951,1779995437231
885965663,3,0.89295006,-4.36305,11.680051,1779995437240
885965673,3,0.81105006,-3.86295,12.67605,1779995437251
885965683,3,0.351,-3.32205,11.125051,1779995437261
885965723,3,-1.2919501,-0.882,9.892051,1779995437300
885965733,3,-1.041,-1.8679501,10.219951,1779995437309
885965743,3,-0.897,-2.184,8.842951,1779995437320
885965753,3,-0.34395,-2.2800002,9.250051,1779995437330
885965763,3,-0.51705,-2.57205,9.259951,1779995437340
885965774,3,-0.58605003,-2.59905,7.7730002,1779995437350
885965784,3,-0.69900006,-2.63895,7.51695,1779995437359
885965794,3,-0.89505005,-3.18495,9.17805,1779995437370
885965804,3,-0.83505005,-4.05195,9.913051,1779995437380
885965814,3,-0.28905,-4.48005,8.79,1779995437391
885965824,3,-0.21495001,-4.92105,7.6200004,1779995437401
885965834,3,0.92100006,-5.886,6.55905,1779995437410
885965844,3,1.0860001,-7.0540504,7.0230002,1779995437421
885965854,3,0.69900006,-7.9950004,7.28205,1779995437431
885965864,3,0.67905,-8.029051,6.8650503,1779995437440
885965874,3,0.48105,-7.3609505,6.4489503,1779995437451
885965884,3,0.36600003,-7.9140005,6.2860503,1779995437461
885965894,3,0.057000004,-7.8469505,6.7120504,1779995437471
885965904,3,-0.33900002,-7.5589504,7.1580005,1779995437481
885965915,3,-0.74205005,-6.8770504,6.8029504,1779995437491
885965925,3,-0.91395,-6.4120502,6.67605,1779995437501
885965935,3,-0.9480001,-5.99805,6.8580003,1779995437511
885965945,3,-0.66,-6.3570004,6.9799504,1779995437521
885965955,3,-0.25605002,-6.846,6.9919505,1779995437531
885965965,3,-0.0139500005,-6.8359504,7.3009505,1779995437541
885965975,3,0.08805001,-7.1119504,7.452,1779995437551
885965985,3,0.049950004,-6.3430505,7.3830004,1779995437561
885965995,3,0.41805002,-6.4410005,6.7309504,1779995437572
885966005,3,0.52605003,-6.85305,6.3,1779995437583
885966015,3,0.37800002,-6.051,6.3,1779995437592
885966025,3,-0.105000004,-5.68905,5.41905,1779995437602
885966035,3,0.0,-6.69495,5.3430004,1779995437611
885966045,3,-0.031050002,-7.7560506,5.2249503,1779995437622
885966056,3,0.22905001,-8.44995,4.45695,1779995437632
885966066,3,0.21000001,-8.76795,2.74005,1779995437643
885966076,3,0.064050004,-8.64105,2.21805,1779995437652
885966086,3,0.097950004,-8.553,2.17995,1779995437662
885966096,3,0.30600002,-8.6629505,1.7869501,1779995437673
885966106,3,0.29595003,-8.680051,2.16105,1779995437682
885966116,3,0.04695,-8.878051,2.52705,1779995437692
885966126,3,-0.20505,-9.07695,2.84805,1779995437702
885966136,3,-0.19095,-8.89995,2.4859502,1779995437713
885966146,3,-0.13095,-8.65095,1.8330001,1779995437724
885966156,3,-0.22500001,-8.500051,1.5480001,1779995437733
885966166,3,-0.21000001,-8.656051,1.11705,1779995437742
885966176,3,0.10695001,-8.139,0.18795002,1779995437754
885966187,3,0.43500003,-8.55795,-0.73995006,1779995437763
885966197,3,0.61200005,-9.37905,-2.3820002,1779995437773
885966207,3,1.0510501,-9.88605,-2.65995,1779995437783
885966217,3,0.64605004,-10.618951,-1.7809501,1779995437793
885966227,3,0.246,-11.050051,-1.506,1779995437803
885966237,3,0.17400001,-11.224951,-1.33605,1779995437813
885966247,3,-0.14295001,-11.98095,-0.87195003,1779995437823
885966257,3,-0.60495,-10.15005,-0.061950002,1779995437833
885966267,3,-0.59295005,-9.35505,-0.726,1779995437843
885966277,3,-0.42105,-8.958,-0.91200006,1779995437855
885966287,3,-0.44700003,-9.052951,-1.6210501,1779995437863
885966297,3,-0.483,-9.166051,-2.121,1779995437874
885966307,3,-0.45195,-9.07005,-2.7180002,1779995437883
885966317,3,-0.30795002,-8.89995,-3.4140003,1779995437894
885966328,3,-0.10695001,-8.92395,-3.8569503,1779995437905
885966338,3,0.01905,-9.108001,-3.8070002,1779995437914
885966348,3,0.21300001,-9.199051,-3.7180502,1779995437924
885966358,3,0.39000002,-9.0390005,-3.7710001,1779995437934
885966368,3,0.43005002,-8.766001,-3.8910003,1779995437944
885966378,3,0.354,-8.48595,-4.25895,1779995437954
885966388,3,0.28695002,-8.401951,-4.386,1779995437964
885966398,3,0.30600002,-8.64105,-4.2709503,1779995437974
885966408,3,0.33195,-8.668051,-3.7519503,1779995437985
885966418,3,0.37995002,-9.313951,-3.4770002,1779995437995
885966428,3,0.17205001,-9.493951,-3.28305,1779995438005
885966438,3,-0.109950006,-9.27795,-3.31605,1779995438014
885966448,3,-0.24405001,-8.835,-3.39,1779995438025
885966458,3,-0.25095,-8.469001,-3.4290001,1779995438036
885966469,3,-0.26295,-8.30895,-3.2250001,1779995438045
885966479,3,-0.21300001,-8.811001,-3.1339502,1779995438054
885966489,3,-0.27495003,-8.886001,-3.28695,1779995438065
885966499,3,-0.30795002,-8.986051,-3.76395,1779995438075
885966509,3,-0.34695002,-9.163051,-3.8050501,1779995438085
885966519,3,-0.351,-9.28995,-3.76605,1779995438096
885966529,3,-0.21495001,-9.25395,-3.828,1779995438106
885966539,3,-0.24105,-9.12495,-3.8160002,1779995438115
885966549,3,-0.24795002,-9.154051,-3.7930503,1779995438125
885966559,3,-0.26505002,-9.307051,-3.7780502,1779995438136
885966569,3,-0.41400003,-9.132,-4.032,1779995438145
885966579,3,-0.50205004,-9.23805,-3.5479503,1779995438155
885966589,3,-0.50205004,-9.592051,-3.1650002,1779995438166
885966600,3,-0.56205004,-9.819,-2.62695,1779995438177
885966610,3,-0.40395,-10.38195,-1.8840001,1779995438186
885966620,3,-0.29205,-10.51605,-1.60395,1779995438197
885966630,3,-0.21495001,-10.47795,-0.93105006,1779995438206
885966640,3,-0.363,-10.416,-0.88395005,1779995438216
885966650,3,-0.45405003,-10.389001,-0.70905006,1779995438226
885966660,3,-0.46395,-10.641001,-0.29895002,1779995438236
885966670,3,-0.62895006,-10.83495,0.09705,1779995438245
885966680,3,-0.768,-11.292001,0.81495005,1779995438256
885966690,3,-0.87795,-11.515051,1.419,1779995438266
885966700,3,-0.837,-11.694,2.0340002,1779995438276
885966710,3,-0.71295005,-11.722951,2.25405,1779995438286
885966720,3,-0.648,-11.74695,2.93895,1779995438295
885966730,3,-0.675,-12.08895,3.8749502,1779995438306
885966741,3,-0.84195006,-12.333,3.9130502,1779995438317
885966751,3,-0.92100006,-12.420001,3.4060502,1779995438326
885966761,3,-1.4770501,-12.441001,3.6739502,1779995438336
885966771,3,-1.5820501,-11.775001,3.7840502,1779995438346
885966781,3,-1.455,-10.875001,3.7510502,1779995438356
885966791,3,-1.23,-9.68805,3.423,1779995438366
885966801,3,-1.12695,-8.46195,3.6910503,1779995438377
885966811,3,-1.21095,-7.3729506,4.78695,1779995438387
885966821,3,-1.503,-6.54405,5.4220505,1779995438397
885966831,3,-2.2360501,-5.95305,5.23005,1779995438407
885966841,3,-2.6790001,-5.2390504,5.51805,1779995438418
885966851,3,-2.45805,-4.3890004,5.9940004,1779995438428
885966861,3,-1.7329501,-3.2400002,6.0750003,1779995438438
885966871,3,0.010950001,-1.2390001,4.3660502,1779995438448
885966882,3,1.98195,1.2930001,2.4049501,1779995438458
885966892,3,0.984,2.01705,3.9949503,1779995438468
885966902,3,-0.25605002,1.9519501,4.99305,1779995438478
885966912,3,-1.1220001,2.01195,4.7920504,1779995438488
885966922,3,-1.1580001,1.7680501,6.2839503,1779995438498
885966932,3,-1.3930501,1.6170001,5.95305,1779995438508
885966942,3,-1.3090501,0.99195004,8.424001,1779995438518
885966952,3,-1.7500501,0.76005006,6.09,1779995438528
885966962,3,-1.9440001,-0.132,7.9450502,1779995438541
885966972,3,-1.3279501,0.094050005,9.736051,1779995438548
885966982,3,-0.29205,-0.33105,7.4620504,1779995438558
885966992,3,-0.97395,-0.88905007,6.52995,1779995438569
885967002,3,-2.0320501,-2.3140502,5.1870003,1779995438578
885967013,3,-1.4260501,-2.80005,6.2140503,1779995438588
885967023,3,-0.99105006,-2.46405,10.31295,1779995438599
885967033,3,-1.314,-2.32995,11.515051,1779995438608
885967043,3,-1.4599501,-2.2680001,11.865001,1779995438618
885967053,3,-1.4599501,-2.697,12.23595,1779995438629
885967063,3,-1.6129501,-2.26605,12.681001,1779995438639
885967073,3,-1.917,-1.866,13.155001,1779995438649
885967083,3,-2.1060002,-1.6309501,13.01895,1779995438659
885967093,3,-2.18505,-1.4130001,12.745951,1779995438669
885967103,3,-2.04705,-1.2430501,12.525001,1779995438679
885967113,3,-1.9459502,-0.94200003,11.817,1779995438689
885967123,3,-2.0269501,-0.71895003,11.941051,1779995438699
885967133,3,-2.2120502,-0.72105,12.123,1779995438710
885967143,3,-2.43705,-0.20895001,11.721001,1779995438719
885967154,3,-2.83905,0.52500004,10.962001,1779995438729
885967164,3,-2.8530002,1.06605,10.94295,1779995438739
885967174,3,-3.0210001,1.6170001,9.3,1779995438750
885967184,3,-2.841,2.505,8.3550005,1779995438759
885967194,3,-1.4310001,2.3449502,8.922001,1779995438770
885967204,3,-0.76095,2.0310001,9.375,1779995438780
885967214,3,-0.38295,2.1460502,9.3820505,1779995438790
885967224,3,-1.0390501,2.33505,7.4710503,1779995438800
885967234,3,-1.33095,2.6580002,5.9479504,1779995438810
885967244,3,-1.7500501,3.28095,6.08505,1779995438820
885967254,3,-1.5289501,3.8119502,6.32205,1779995438830
885967264,3,-1.7590501,3.5080502,6.9229503,1779995438840
885967274,3,-2.1450002,3.7830002,6.6070504,1779995438850
885967284,3,-3.18405,2.62905,6.4300504,1779995438861
885967295,3,-3.8950503,1.7359501,7.53105,1779995438871
885967305,3,-3.8730001,1.14705,9.37695,1779995438881
885967315,3,-3.8880002,1.21395,10.10505,1779995438891
885967325,3,-3.9589503,1.22895,10.60995,1779995438901
885967335,3,-4.8120003,0.76905006,10.416,1779995438911
885967345,3,-4.75005,0.48900002,9.34095,1779995438921
885967355,3,-4.668,0.822,8.41695,1779995438932
885967365,3,-4.80705,0.669,8.05305,1779995438941
885967375,3,-4.94805,0.42195,8.23005,1779995438952
885967385,3,-5.47695,0.80700004,10.938001,1779995438962
885967395,3,-5.8369503,2.16,10.2289505,1779995438971
885967405,3,-6.26805,3.1939502,9.69495,1779995438982
885967415,3,-7.3639503,4.0609503,8.686951,1779995438992
885967426,3,-8.158951,4.31505,8.65905,1779995439002
885967436,3,-8.286,3.9820502,9.801001,1779995439012
885967446,3,-7.8960004,4.011,10.806001,1779995439023
885967456,3,-7.05495,4.6860003,10.126051,1779995439032
885967466,3,-5.9010005,5.06895,8.59605,1779995439042
885967476,3,-5.499,4.6410003,7.8760505,1779995439052
885967486,3,-6.2200503,4.1070004,7.359,1779995439063
885967496,3,-6.9979506,3.93405,7.143,1779995439072
885967506,3,-7.25895,3.8790002,6.33195,1779995439082
885967516,3,-7.2520504,3.252,5.9700003,1779995439092
885967526,3,-7.2780004,3.21105,5.89305,1779995439103
885967536,3,-7.1370006,3.18195,4.9740005,1779995439113
885967546,3,-7.17705,3.27795,4.1599503,1779995439123
885967556,3,-7.29195,3.2020502,3.6810002,1779995439133
885967567,3,-7.3450503,2.9929502,3.456,1779995439142
885967577,3,-7.4220004,2.70405,3.4009502,1779995439153
885967587,3,-7.8930006,2.5150502,2.93895,1779995439164
885967597,3,-8.52795,2.59095,2.83095,1779995439174
885967607,3,-8.688001,2.66505,2.90295,1779995439184
885967617,3,-8.65695,2.742,3.0250502,1779995439194
885967627,3,-8.85105,2.70105,3.279,1779995439204
885967637,3,-9.04695,2.7559502,3.0199502,1779995439213
885967647,3,-9.18795,2.907,2.6539502,1779995439224
885967657,3,-9.562051,2.7640502,2.4120002,1779995439233
885967667,3,-9.909,2.6460001,1.6099501,1779995439243
885967677,3,-9.969001,2.87595,0.94695,1779995439254
885967687,3,-10.222951,3.0340502,0.53505003,1779995439263
885967697,3,-10.516951,3.0169501,0.17595,1779995439273
885967708,3,-10.483951,3.1249502,0.40305,1779995439284
885967718,3,-11.03205,3.1969502,0.34095,1779995439293
885967728,3,-10.26105,3.6160502,1.34895,1779995439303
885967738,3,-11.20695,3.69495,0.47100002,1779995439314
885967748,3,-10.927051,3.9799502,0.813,1779995439323
885967758,3,-10.905001,3.8890502,0.93495005,1779995439333
885967768,3,-10.441051,3.9850502,0.93495005,1779995439344
885967778,3,-11.025001,3.52005,-0.052950002,1779995439354
885967788,3,-10.55595,3.6330001,0.26205,1779995439363
885967798,3,-10.2949505,3.417,0.30105,1779995439374
885967808,3,-10.70205,3.45795,0.28605002,1779995439385
885967818,3,-10.998,3.4480503,0.42495003,1779995439395
885967828,3,-11.04195,3.5820003,0.54705,1779995439404
885967838,3,-11.14395,3.5340002,0.588,1779995439415
885967849,3,-11.073001,3.5340002,0.48195,1779995439424
885967859,3,-10.76595,3.417,0.384,1779995439435
885967869,3,-10.26795,3.18195,0.31695002,1779995439445
885967879,3,-9.651,2.9599502,0.064050004,1779995439456
885967889,3,-8.805,2.7490501,-0.44805002,1779995439465
885967899,3,-8.254951,2.6250002,-1.26405,1779995439475
885967909,3,-7.5940504,2.538,-1.8700501,1779995439485
885967919,3,-7.1050506,2.4760501,-2.47305,1779995439495
885967929,3,-6.7270503,2.5170002,-2.8279502,1779995439505
885967939,3,-7.29195,0.73305005,-2.38995,1779995439515
885967949,3,-11.476951,-7.8610506,0.63105005,1779995439525
885967959,3,-10.55595,-0.064950004,-0.91995007,1779995439536
885967969,3,-8.488951,2.53395,-2.0350502,1779995439546
885967980,3,-7.9530005,3.04095,-2.0299501,1779995439557
885967990,3,-8.169001,3.3240001,-3.01005,1779995439566
885968000,3,-8.83605,3.17805,-3.76605,1779995439577
885968010,3,-9.70995,2.4829502,-3.6079502,1779995439586
885968020,3,-10.54395,1.5090001,-2.6430001,1779995439596
885968030,3,-11.008051,1.1230501,-2.46405,1779995439606
885968040,3,-11.005951,1.404,-3.2389503,1779995439616
885968050,3,-10.776001,1.815,-3.3420002,1779995439626
885968060,3,-10.8810005,2.12895,-3.5119503,1779995439637
885968070,3,-10.804951,2.26305,-3.4740002,1779995439646
885968080,3,-10.693951,2.2420502,-3.4429502,1779995439656
885968090,3,-10.780951,2.1720002,-3.48795,1779995439666
885968100,3,-10.869,1.9590001,-3.24705,1779995439677
885968110,3,-10.62705,1.6170001,-3.321,1779995439687
885968121,3,-10.180051,1.23405,-2.94705,1779995439696
885968131,3,-9.8880005,1.15005,-2.7439501,1779995439708
885968141,3,-9.564,1.21695,-2.775,1779995439717
885968151,3,-9.483001,1.557,-2.6530502,1779995439727
885968161,3,-9.780001,1.5949501,-2.97105,1779995439738
885968171,3,-9.78195,1.5450001,-3.00705,1779995439747
885968181,3,-9.595051,1.4899501,-3.2350502,1779995439757
885968191,3,-9.528001,1.248,-3.6469502,1779995439768
885968201,3,-8.932051,1.3050001,-4.83195,1779995439779
885968211,3,-8.797951,1.0519501,-5.27895,1779995439788
885968221,3,-9.069,0.86700004,-6.2440505,1779995439798
885968231,3,-9.073951,0.75495005,-6.81195,1779995439809
885968241,3,-9.61005,0.537,-6.9619503,1779995439819
885968251,3,-10.017,0.40995002,-6.747,1779995439827
885968262,3,-10.066951,0.56295,-6.1459503,1779995439839
885968272,3,-9.969001,0.89805007,-6.2800503,1779995439848
885968282,3,-9.8880005,1.095,-6.2299504,1779995439859
885968292,3,-9.98295,1.128,-5.6530504,1779995439868
885968302,3,-9.93105,1.131,-4.69005,1779995439878
885968312,3,-9.70995,1.30095,-3.66105,1779995439888
885968322,3,-9.73005,1.4950501,-2.9280002,1779995439898
885968332,3,-9.327001,1.88205,-2.6890502,1779995439909
885968342,3,-9.39,1.9660501,-2.93805,1779995439918
885968352,3,-8.961,2.0050502,-3.117,1779995439929
885968362,3,-8.743051,1.8180001,-3.6420002,1779995439938
885968372,3,-8.69295,1.54005,-4.73595,1779995439949
885968382,3,-8.590051,1.2409501,-6.16305,1779995439959
885968393,3,-8.580001,1.0159501,-7.3410006,1779995439969
885968403,3,-8.652,1.0210501,-7.9440002,1779995439978
885968413,3,-8.71395,1.131,-8.13105,1779995439990
885968423,3,-8.892,1.107,-8.557051,1779995440001
885968433,3,-8.80095,1.0849501,-9.321,1779995440009
885968443,3,-8.66205,1.07805,-10.27095,1779995440019
885968453,3,-8.427,1.0849501,-11.03295,1779995440029
885968463,3,-8.34105,1.07805,-11.81295,1779995440039
885968473,3,-8.42895,1.0180501,-12.56505,1779995440049
885968483,3,-8.439,1.0350001,-13.113001,1779995440059
885968493,3,-8.42895,1.07805,-13.59195,1779995440069
885968503,3,-8.34795,1.0350001,-13.834051,1779995440079
885968513,3,-8.133,0.97305006,-13.555951,1779995440090
885968523,3,-7.5820503,0.98205006,-12.460051,1779995440100
885968534,3,-6.8370004,1.116,-11.19495,1779995440110
885968544,3,-5.9010005,1.3270501,-9.9529505,1779995440120
885968554,3,-4.77405,1.593,-8.820001,1779995440130
885968564,3,-3.5839503,1.84905,-8.13105,1779995440140
885968574,3,-2.02305,1.99995,-6.5839505,1779995440151
885968584,3,-0.23895001,2.2009501,-5.3419504,1779995440160
885968594,3,1.3120501,2.0359502,-4.1779504,1779995440170
885968604,3,3.07395,1.6020001,-1.9060501,1779995440180
885968614,3,0.69405,1.7149501,-10.57995,1779995440190
885968624,3,1.2400501,0.80700004,-9.346951,1779995440200
885968634,3,1.23,0.69705003,-9.316051,1779995440210
885968644,3,2.07795,0.67800003,-8.298,1779995440221
885968654,3,1.74195,0.04095,-7.63005,1779995440231
885968664,3,2.43705,-0.83895004,-6.1200004,1779995440240
885968675,3,2.6119502,-0.87195003,-5.3490005,1779995440252
885968685,3,2.6950502,-1.0180501,-4.6980004,1779995440263
885968695,3,2.5450501,-1.2220501,-4.4610004,1779995440272
885968705,3,2.214,-1.08105,-4.27395,1779995440281
885968715,3,1.86705,-0.71400005,-4.28805,1779995440290
885968725,3,1.5370501,-0.24495001,-4.45305,1779995440300
885968735,3,1.1920501,0.36900002,-4.77405,1779995440311
885968745,3,0.82305,1.0830001,-5.1930003,1779995440321
885968755,3,0.47595003,1.66005,-5.67,1779995440331
885968765,3,0.17400001,2.043,-6.3180003,1779995440341
885968775,3,-0.069000006,2.3040001,-6.9289503,1779995440351
885968785,3,-0.246,2.49105,-7.3429503,1779995440361
885968795,3,-0.31800002,2.52195,-7.635,1779995440371
885968806,3,-0.23205002,2.5099502,-7.8100505,1779995440381
885968816,3,-0.010950001,2.3370001,-8.06595,1779995440393
885968826,3,0.201,2.151,-8.45205,1779995440403
885968836,3,0.423,1.9710001,-8.81595,1779995440413
885968846,3,0.61200005,1.7700001,-9.117001,1779995440422
885968856,3,0.72705,1.5090001,-9.63,1779995440432
885968866,3,0.86895007,1.24605,-10.20195,1779995440442
885968876,3,1.0030501,1.07595,-10.8,1779995440453
885968886,3,1.12695,0.9990001,-11.221951,1779995440462
885968896,3,1.29495,0.9889501,-11.35305,1779995440473
885968906,3,1.383,0.98205006,-11.48295,1779995440483
885968916,3,1.47195,1.0489501,-11.571,1779995440493
885968926,3,1.5460501,1.00395,-11.892,1779995440503
885968936,3,1.695,0.99195004,-12.28995,1779995440513
885968947,3,1.608,0.81495005,-13.2300005,1779995440523
885968957,3,1.6800001,0.44805002,-13.810051,1779995440533
885968967,3,1.6870501,0.25905,-14.05605,1779995440543
885968977,3,1.79805,0.22995001,-13.795951,1779995440553
885968987,3,1.8910501,0.513,-13.116,1779995440563
885968997,3,1.881,0.95295006,-12.46695,1779995440573
885969007,3,1.9600501,1.1740501,-11.79405,1779995440583
885969017,3,2.07795,1.2580501,-11.01105,1779995440593
885969027,3,2.2789502,1.248,-9.958051,1779995440603
885969037,3,2.4780002,1.284,-8.81295,1779995440614
885969047,3,2.4780002,1.53795,-7.899,1779995440623
885969057,3,2.32695,1.7359501,-7.49205,1779995440633
885969067,3,2.25495,1.6480501,-7.21395,1779995440644
885969077,3,2.1760502,1.36995,-7.1179504,1779995440654
885969088,3,2.12805,0.9990001,-7.077,1779995440664
885969098,3,2.0389502,0.68295,-6.9979506,1779995440675
885969108,3,1.812,0.56295,-7.00605,1779995440684
885969118,3,1.5079501,0.57795,-7.1520004,1779995440694
885969128,3,1.25205,0.537,-7.4410505,1779995440705
885969138,3,1.02405,0.43905002,-7.8100505,1779995440715
885969148,3,0.84495,0.393,-8.0779505,1779995440726
885969158,3,0.65295005,0.34305,-8.41605,1779995440734
885969168,3,0.41595003,0.39600003,-8.859,1779995440745
885969178,3,0.23205002,0.44595003,-9.32295,1779995440756
885969188,3,0.064050004,0.549,-9.759001,1779995440766
885969198,3,-0.093,0.657,-10.269,1779995440775
885969208,3,-0.16905001,0.68505,-10.747951,1779995440785
885969219,3,-0.12195001,0.58995,-11.005951,1779995440795
885969229,3,0.022950001,0.43395,-11.18805,1779995440806
885969239,3,0.21495001,0.31395,-11.34405,1779995440815
885969249,3,0.37500003,0.22605,-11.643001,1779995440825
885969259,3,0.54105,0.13005,-12.11505,1779995440835
885969269,3,0.70095,0.00795,-12.64395,1779995440845
885969279,3,0.86100006,-0.23295002,-13.032001,1779995440855
885969289,3,0.90705,-0.40305,-13.25895,1779995440865
885969299,3,1.00695,-0.57495004,-13.434001,1779995440875
885969309,3,0.94305,-0.52995,-13.590001,1779995440887
885969319,3,0.897,-0.57495004,-13.944,1779995440896
885969329,3,0.64395005,-0.513,-14.305051,1779995440906
885969339,3,0.33495003,-0.46500003,-14.68395,1779995440915
885969349,3,-0.07095,-0.56295,-15.379951,1779995440927
885969360,3,-0.651,-0.62295,-16.34505,1779995440940
885969370,3,-1.197,-0.78795004,-17.17395,1779995440945
885969380,3,-1.8259501,-0.87195003,-17.916,1779995440957
885969390,3,-2.48895,-0.75495005,-18.51,1779995440965
885969400,3,-3.10695,-0.51795,-18.754051,1779995440976
885969410,3,-3.6480002,-0.19995001,-18.61005,1779995440986
885969420,3,-4.0669503,-0.0010500001,-18.202951,1779995440998
885969430,3,-4.22805,0.08400001,-17.823,1779995441007
885969440,3,-4.01895,0.132,-17.30295,1779995441016
885969450,3,-3.6120002,0.34500003,-16.507952,1779995441026
885969460,3,-3.213,0.77895004,-15.610051,1779995441036
885969470,3,-2.7859502,1.1880001,-14.83695,1779995441047
885969480,3,-2.331,1.3290001,-14.089951,1779995441057
885969490,3,-1.8690001,1.1230501,-13.2949505,1779995441067
885969501,3,-1.335,0.74805003,-11.890051,1779995441076
885969511,3,-0.70305,0.45795003,-9.99405,1779995441087
885969521,3,0.061950002,0.31905,-7.93695,1779995441097
885969531,3,0.555,0.30900002,-6.6130505,1779995441107
885969541,3,0.84195006,0.21795002,-5.907,1779995441117
885969551,3,0.8880001,-0.079950005,-5.9689503,1779995441127
885969561,3,0.86895007,-0.56100005,-6.1600504,1779995441137
885969571,3,0.88305,-1.1359501,-6.1720505,1779995441147
885969581,3,0.9480001,-1.44,-5.57595,1779995441157
885969591,3,1.0000501,-1.2910501,-4.91505,1779995441167
885969601,3,0.96000004,-0.83895004,-4.044,1779995441178
885969611,3,0.93105006,-0.39795002,-3.3019502,1779995441187
885969621,3,0.9979501,-0.04095,-2.56695,1779995441198
885969631,3,1.05795,0.16095,-2.16195,1779995441208
885969642,3,1.25205,0.36705002,-1.40295,1779995441218
885969652,3,1.4860501,0.67800003,-0.76095,1779995441228
885969662,3,1.71405,1.2240001,-0.07005,1779995441238
885969672,3,1.6990501,1.7320501,-0.13905,1779995441248
885969682,3,1.575,1.983,-0.65895003,1779995441258
885969692,3,1.44105,1.88205,-1.8919501,1779995441269
885969702,3,1.3120501,1.6789501,-3.357,1779995441277
885969712,3,1.14405,1.5300001,-4.5370502,1779995441287
885969722,3,0.93600005,1.6309501,-5.30805,1779995441298
885969732,3,0.45405003,2.11905,-5.8369503,1779995441308
885969742,3,-0.11895001,2.38995,-6.7920003,1779995441318
885969752,3,-0.76995003,2.2099502,-8.337001,1779995441328
885969762,3,-1.2610501,1.542,-10.017,1779995441339
885969773,3,-1.6300501,1.0159501,-11.902051,1779995441349
885969783,3,-1.8550501,0.56295,-13.863001,1779995441358
885969793,3,-2.2050002,0.441,-16.09605,1779995441369
885969803,3,-2.1760502,0.36195,-16.743,1779995441379
885969813,3,-2.0680501,-0.00795,-17.191051,1779995441389
885969823,3,-1.9030501,-0.71205,-16.91295,1779995441399
885969833,3,-1.9080001,-1.42305,-17.238,1779995441409
885969843,3,-1.9600501,-1.7530501,-17.893951,1779995441419
885969853,3,-2.01105,-1.96395,-18.912,1779995441429
885969863,3,-2.0010002,-1.7560501,-19.86705,1779995441439
885969873,3,-1.74705,-1.4830501,-20.04405,1779995441450
885969883,3,-1.36395,-1.4440501,-20.02005,1779995441460
885969893,3,-0.70605004,-1.50195,-19.149,1779995441470
885969903,3,-0.24105,-1.57605,-18.52395,1779995441480
885969914,3,0.15,-1.6819501,-17.583,1779995441490
885969924,3,0.25995,-1.7340001,-17.78895,1779995441500
885969934,3,0.34695002,-1.557,-17.37,1779995441510
885969944,3,0.342,-1.128,-16.37595,1779995441520
885969954,3,0.47400004,-0.69795,-15.409051,1779995441530
885969964,3,0.61995006,-0.45600003,-14.293951,1779995441540
885969974,3,0.82095003,-0.25005,-13.25205,1779995441551
885969984,3,0.98595005,-0.15405001,-12.493051,1779995441560
885969994,3,1.1850001,-0.135,-12.057,1779995441570
885970004,3,1.3279501,-0.14895001,-11.7960005,1779995441581
885970014,3,1.3950001,-0.12795001,-11.607,1779995441591
885970024,3,1.371,-0.14895001,-11.392051,1779995441601
885970034,3,1.2760501,-0.18795002,-11.113951,1779995441611
885970044,3,1.1389501,-0.32895002,-10.932,1779995441621
885970055,3,0.9979501,-0.642,-11.193001,1779995441631
885970065,3,0.80595005,-0.82395005,-11.349001,1779995441641
885970075,3,0.555,-0.87495005,-11.3560505,1779995441651
885970085,3,0.29895002,-0.97005004,-11.385,1779995441661
885970095,3,0.043050002,-1.14495,-11.569051,1779995441671
885970105,3,-0.21300001,-1.3750501,-12.112051,1779995441682
885970115,3,-0.43995002,-1.57095,-12.993001,1779995441691
885970125,3,-0.72705,-1.6789501,-14.229001,1779995441701
885970135,3,-1.065,-1.6170001,-15.993001,1779995441711
885970145,3,-1.5630001,-1.557,-17.94495,1779995441721
885970155,3,-2.19705,-1.84395,-19.567951,1779995441732
885970165,3,-2.9179502,-2.4090002,-20.767052,1779995441743
885970175,3,-3.68895,-2.80695,-21.85905,1779995441752
885970186,3,-4.3780503,-2.62695,-22.38405,1779995441763
885970196,3,-4.9360504,-1.9450501,-22.090952,1779995441773
885970206,3,-5.0659504,-1.4490001,-21.48105,1779995441782
885970216,3,-5.0080504,-0.85800004,-20.65995,1779995441792
885970226,3,-4.74195,-0.31905,-19.96095,1779995441802
885970236,3,-4.30695,0.27105,-18.72495,1779995441813
885970246,3,-3.79695,0.99195004,-16.839,1779995441823
885970256,3,-3.081,1.6840501,-14.380051,1779995441832
885970266,3,-2.2720501,1.8750001,-12.297001,1779995441843
885970276,3,-1.62495,1.5499501,-11.14305,1779995441853
885970286,3,-1.31595,1.0320001,-10.884001,1779995441863
885970296,3,-0.98595005,0.37605003,-10.450951,1779995441874
885970306,3,-0.70605004,-0.20895001,-10.192051,1779995441882
885970316,3,-0.31800002,-0.642,-9.285001,1779995441893
885970327,3,0.079050004,-0.9580501,-8.24295,1779995441903
885970337,3,0.50505,-1.26705,-7.06995,1779995441913
885970347,3,0.85905004,-1.58595,-5.97795,1779995441923
885970357,3,1.1220001,-1.8540001,-5.16195,1779995441933
885970367,3,1.36905,-1.9620001,-4.3120503,1779995441943
885970377,3,1.7070001,-2.0050502,-3.1920002,1779995441954
885970387,3,1.9960501,-1.9399501,-2.32995,1779995441965
885970397,3,2.15895,-1.7770501,-1.6660501,1779995441974
885970407,3,2.1660001,-1.45905,-1.281,1779995441983
885970417,3,2.1330001,-1.167,-0.9889501,1779995441995
885970427,3,2.0700002,-1.02795,-0.90000004,1779995442005
885970437,3,1.9939501,-1.0020001,-0.90300006,1779995442014
885970447,3,1.9099501,-0.89895004,-0.97695005,1779995442024
885970457,3,1.7659501,-0.642,-1.02495,1779995442034
885970468,3,1.5150001,-0.231,-1.41795,1779995442044
885970478,3,1.194,0.13905,-1.9369501,1779995442060
885970488,3,0.81405,0.51105005,-2.6220002,1779995442064
885970498,3,0.47400004,0.73605,-3.3760502,1779995442076
885970508,3,0.14295001,0.91305006,-4.197,1779995442084
885970518,3,-0.22695,1.23105,-5.0350504,1779995442094
885970528,3,-0.75405,1.60695,-6.06195,1779995442105
885970538,3,-1.335,2.055,-7.4869504,1779995442115
885970548,3,-1.9290001,2.3830502,-9.28695,1779995442124
885970558,3,-2.46105,2.42805,-11.418,1779995442134
885970568,3,-2.9590502,2.2150502,-13.329,1779995442145
885970578,3,-3.4060502,1.899,-15.088051,1779995442155
885970588,3,-3.79695,1.437,-16.498951,1779995442165
885970599,3,-4.1130004,0.94605005,-17.86095,1779995442175
885970609,3,-4.29705,0.44805002,-19.16295,1779995442186
885970619,3,-4.23,-0.18495001,-21.073952,1779995442194
885970629,3,-4.01895,-0.72900003,-23.00805,1779995442205
885970639,3,-3.5959501,-0.99705005,-23.878052,1779995442215
885970649,3,-2.9899502,-1.047,-23.70795,1779995442226
885970659,3,-2.36505,-0.87705004,-23.032051,1779995442235
885970669,3,-1.8409501,-0.642,-22.044,1779995442245
885970679,3,-1.1010001,-0.65895003,-19.636951,1779995442255
885970689,3,-0.83295006,-1.28205,-20.692951,1779995442265
885970699,3,-0.37500003,-1.8900001,-21.249,1779995442275
885970709,3,0.025950002,-2.1340501,-21.406952,1779995442286
885970719,3,0.423,-2.0770502,-20.322,1779995442295
885970729,3,0.77295005,-1.7509501,-18.222,1779995442305
885970740,3,0.92805004,-1.19295,-15.522,1779995442316
885970750,3,1.065,-0.82905006,-14.133,1779995442326
885970760,3,1.05795,-0.50595003,-12.175051,1779995442336
885970770,3,1.0000501,0.04095,-10.495951,1779995442345
885970780,3,0.88500005,0.67305005,-9.460051,1779995442356
885970790,3,0.70305,1.32,-8.658,1779995442366
885970800,3,0.51195,1.7050501,-8.260051,1779995442375
885970810,3,0.38700002,1.8540001,-7.7719502,1779995442387
885970820,3,0.27495003,1.8349501,-7.3020005,1779995442397
885970830,3,0.165,1.7359501,-7.1010003,1779995442406
885970840,3,0.049950004,1.44,-7.4989505,1779995442419
885970850,3,-0.13395001,1.1040001,-8.25105,1779995442427
885970860,3,-0.38295,0.74505,-9.052951,1779995442436
885970870,3,-0.64395005,0.45795003,-9.56295,1779995442448
885970881,3,-0.97605,0.25695002,-10.10805,1779995442457
885970891,3,-1.3399501,0.10095,-11.15505,1779995442467
885970901,3,-1.7689501,-0.13695,-12.78495,1779995442476
885970911,3,-2.319,-0.45795003,-14.557051,1779995442487
885970921,3,-3.0859501,-0.63795,-16.01295,1779995442497
885970931,3,-4.02405,-0.702,-17.619001,1779995442507
885970941,3,-5.142,-0.66405004,-19.702051,1779995442517
885970951,3,-6.36105,-0.48900002,-21.783,1779995442527
885970961,3,-7.3759503,-0.19005,-22.798052,1779995442537
885970971,3,-7.93905,0.20895001,-22.56495,1779995442548
885970981,3,-8.014951,0.88905007,-21.208052,1779995442557
885970991,3,-7.8360004,1.71,-19.929,1779995442568
885971001,3,-7.2559505,2.0380502,-19.621052,1779995442578
885971012,3,-6.39195,2.364,-19.635,1779995442588
885971022,3,-5.43405,3.3760502,-18.442951,1779995442598
885971032,3,-4.2730503,4.2049503,-16.62495,1779995442608
885971042,3,-3.0210001,4.3720503,-14.590051,1779995442618
885971052,3,-1.6180501,3.6520503,-12.294001,1779995442628
885971062,3,-0.19095,2.5549502,-9.129001,1779995442638
885971072,3,0.9670501,1.044,-7.0410004,1779995442648
885971082,3,1.76205,-0.63495004,-6.2899504,1779995442658
885971092,3,2.5090501,-1.9810501,-5.7340503,1779995442669
885971102,3,3.00705,-2.8159502,-5.3149505,1779995442678
885971112,3,3.24795,-3.219,-4.7860503,1779995442688
885971122,3,3.1960502,-3.144,-4.5160503,1779995442699
885971132,3,2.9299502,-2.5429502,-4.26195,1779995442709
885971142,3,2.5489502,-1.605,-4.00995,1779995442719
885971153,3,2.0680501,-0.61395,-3.9169502,1779995442729
885971163,3,1.5439501,0.29295,-3.9120002,1779995442739
885971173,3,1.077,1.0680001,-3.9910502,1779995442749
885971183,3,0.69105005,1.6380001,-4.2259502,1779995442760
885971193,3,0.37995002,1.96905,-4.563,1779995442771
885971203,3,0.18900001,2.15295,-4.9420505,1779995442779
885971213,3,0.07395,2.196,-5.334,1779995442789
885971223,3,0.064050004,2.24895,-5.655,1779995442799
885971233,3,0.049950004,2.40405,-6.057,1779995442810
885971243,3,0.03795,2.5819502,-6.6940503,1779995442820
885971253,3,0.105000004,2.742,-7.06995,1779995442831
885971263,3,0.15795001,2.87805,-7.2379503,1779995442843
885971273,3,0.117000006,2.95005,-7.314,1779995442851
885971283,3,0.094950005,2.7520502,-7.4149504,1779995442862
885971294,3,-0.00705,2.4430501,-7.6810503,1779995442870
885971304,3,-0.06705,2.1750002,-7.9420505,1779995442880
885971314,3,-0.21300001,2.0050502,-8.44005,1779995442890
885971324,3,-0.31800002,1.71,-9.1050005,1779995442900
885971334,3,-0.37800002,1.26705,-9.93105,1779995442911
885971344,3,-0.44205,0.74505,-10.884001,1779995442920
885971354,3,-0.342,0.22800002,-11.691001,1779995442930
885971364,3,-0.15795001,0.01305,-12.021001,1779995442941
885971374,3,-0.010950001,0.01695,-12.004951,1779995442950
885971384,3,0.11400001,-0.003,-11.964001,1779995442960
885971394,3,0.30795002,-0.051000003,-12.163051,1779995442971
885971404,3,0.42105,-0.027,-12.538951,1779995442980
885971414,3,0.52905005,0.123,-12.88605,1779995442991
885971425,3,0.708,0.17805001,-13.456051,1779995443001
885971435,3,0.89295006,0.26895002,-13.85805,1779995443011
885971445,3,1.0510501,0.441,-13.957951,1779995443021
885971455,3,1.16295,0.64005005,-14.05605,1779995443031
885971465,3,1.2090001,0.90300006,-14.03505,1779995443041
885971475,3,1.2730501,1.07295,-14.358001,1779995443051
885971485,3,1.3590001,1.1880001,-14.40795,1779995443061
885971495,3,1.40295,1.43505,-14.0449505,1779995443071
885971505,3,1.3740001,1.6210501,-13.708951,1779995443081
885971515,3,1.2540001,1.7700001,-13.378951,1779995443091
885971525,3,1.0339501,2.04795,-12.94305,1779995443103
885971535,3,0.83505005,2.3449502,-12.675,1779995443112
885971545,3,0.69405,2.3779502,-12.852,1779995443122
885971555,3,0.66495,2.36805,-12.862051,1779995443132
885971566,3,0.69600004,2.46195,-12.225,1779995443142
885971576,3,1.0360501,2.76795,-10.003051,1779995443152
885971586,3,-0.47595003,3.1729503,-10.72095,1779995443162
885971596,3,0.19800001,2.22705,-11.99505,1779995443172
885971606,3,0.12900001,2.0070002,-12.26595,1779995443182
885971616,3,0.0,2.2390501,-10.951051,1779995443192
885971626,3,0.025950002,2.22195,-9.663,1779995443202
885971636,3,-0.41595003,1.9519501,-8.953951,1779995443213
885971646,3,-0.96195006,1.626,-9.061951,1779995443223
885971656,3,-1.0530001,1.5139501,-9.3490505,1779995443232
885971666,3,-1.161,1.4299501,-9.832951,1779995443244
885971676,3,-1.491,1.26495,-10.017,1779995443253
885971686,3,-1.5409501,1.07595,-9.77295,1779995443263
885971696,3,-1.098,0.96495,-9.74505,1779995443273
885971707,3,-0.53805,0.86700004,-9.658051,1779995443282
885971717,3,-0.201,0.693,-9.529051,1779995443293
885971727,3,-0.22905001,0.47205,-9.405001,1779995443303
885971737,3,-0.50895,0.31395,-9.29205,1779995443314
885971747,3,-0.70305,0.27405003,-8.96895,1779995443323
885971757,3,-0.66,0.40305,-8.878051,1779995443333
885971767,3,-0.45405003,0.549,-8.743951,1779995443342
885971777,3,-0.021000002,0.822,-8.62395,1779995443352
885971787,3,0.33900002,1.21695,-8.646001,1779995443364
885971797,3,0.35895002,1.6330501,-8.701051,1779995443373
885971807,3,0.18900001,1.9420501,-8.81805,1779995443383
885971817,3,0.08295,2.1390002,-9.055051,1779995443394
885971827,3,0.20295002,2.15295,-9.048,1779995443403
885971837,3,0.411,2.18205,-8.986051,1779995443414
885971848,3,0.61005,2.1700501,-8.919001,1779995443424
885971858,3,0.75795,2.091,-9.0379505,1779995443434
885971868,3,0.94305,1.9969501,-9.38805,1779995443444
885971878,3,1.1149501,1.8940501,-9.70905,1779995443454
885971888,3,1.2970501,1.7839501,-9.996,1779995443464
885971898,3,1.24695,1.6500001,-9.970051,1779995443474
885971908,3,0.957,1.45905,-9.8880005,1779995443484
885971918,3,0.66705,1.26495,-10.044001,1779995443494
885971928,3,0.67005,1.23105,-10.056001,1779995443505
885971938,3,0.94005007,1.2859501,-10.044001,1779995443514
885971948,3,1.233,1.31505,-9.77295,1779995443524
885971958,3,1.14195,1.248,-9.394951,1779995443534
885971968,3,0.77295005,1.0900501,-9.10005,1779995443545
885971979,3,0.61200005,0.99405,-9.043051,1779995443555
885971989,3,0.64605004,1.00605,-8.887051,1779995443565
885971999,3,0.94500005,1.12605,-8.2890005,1779995443575
885972009,3,1.0339501,1.2859501,-7.6470003,1779995443585
885972019,3,0.69600004,1.3440001,-7.59,1779995443595
885972029,3,-0.105000004,1.3920001,-8.03295,1779995443605
885972039,3,-0.55005,1.36995,-7.9680004,1779995443615
885972049,3,-0.69405,1.3920001,-7.8529506,1779995443626
885972059,3,-0.675,1.45395,-7.7170506,1779995443636
885972069,3,-0.81405,1.5300001,-7.83405,1779995443647
885972079,3,-1.04295,1.485,-7.9750504,1779995443656
885972089,3,-1.17495,1.24995,-8.44905,1779995443667
885972099,3,-1.27995,1.19805,-8.92605,1779995443676
885972109,3,-1.27995,1.3369501,-9.156,1779995443686
885972120,3,-1.3429501,1.416,-9.249001,1779995443696
885972130,3,-1.5169501,1.49205,-9.49995,1779995443707
885972140,3,-1.6129501,1.5450001,-9.96,1779995443717
885972150,3,-1.55595,1.5660001,-10.111051,1779995443726
885972160,3,-1.386,1.5280501,-9.77805,1779995443736
885972170,3,-1.28295,1.62405,-9.42105,1779995443746
885972180,3,-1.47405,1.84905,-9.46395,1779995443756
885972190,3,-1.9030501,2.1409502,-9.25395,1779995443766
885972200,3,-2.3359501,2.24895,-8.78205,1779995443776
885972210,3,-2.8219502,2.23005,-8.13795,1779995443786
885972220,3,-3.34695,2.043,-7.4599504,1779995443797
885972230,3,-3.7780502,1.9660501,-7.1640005,1779995443807
885972240,3,-4.20405,1.9780501,-7.34805,1779995443816
885972250,3,-4.716,2.124,-7.68795,1779995443827
885972261,3,-5.0989504,2.3470502,-8.17395,1779995443837
885972271,3,-5.37195,2.5459502,-8.908951,1779995443848
885972281,3,-5.7960005,2.5459502,-10.245001,1779995443859
885972291,3,-6.1980004,2.6100001,-11.53995,1779995443867
885972301,3,-6.64095,2.6560502,-12.211051,1779995443877
885972311,3,-6.9979506,2.66295,-12.306001,1779995443887
885972321,3,-7.05495,2.5860002,-12.13605,1779995443898
885972331,3,-6.88005,2.66295,-11.559001,1779995443909
885972341,3,-6.5550003,2.6250002,-9.98595,1779995443918
885972351,3,-6.50895,2.63895,-9.144,1779995443930
885972361,3,-6.50895,2.6820002,-8.13105,1779995443937
885972371,3,-6.6070504,2.69895,-7.6210504,1779995443947
885972381,3,-6.7369504,1.8559501,-8.47095,1779995443957
885972392,3,-7.1580005,0.52995,-9.15795,1779995443968
885972402,3,-7.35195,0.76005006,-8.0779505,1779995443978
885972412,3,-6.9949503,1.84905,-7.4029503,1779995443988
885972422,3,-6.4350004,2.69595,-6.8599505,1779995443998
885972432,3,-6.0420003,3.0199502,-7.04895,1779995444008
885972442,3,-5.38395,3.144,-6.8710504,1779995444018
885972452,3,-5.01105,2.7799501,-6.9270005,1779995444028
885972462,3,-5.2039504,2.301,-6.9910502,1779995444038
885972472,3,-5.5950003,1.9710001,-6.83295,1779995444048
885972482,3,-5.76,1.6170001,-6.5869503,1779995444058
885972492,3,-5.6140504,1.4490001,-6.79995,1779995444069
885972502,3,-5.35305,1.23405,-6.8040004,1779995444078
885972512,3,-5.3700004,1.143,-7.0249505,1779995444089
885972522,3,-5.9989505,1.2529501,-7.5850506,1779995444099
885972533,3,-6.5929503,1.284,-6.951,1779995444109
885972543,3,-7.3020005,1.22595,-6.8359504,1779995444119
885972553,3,-7.6660504,1.1710501,-6.8830504,1779995444129
885972563,3,-7.5600004,1.1880001,-6.42105,1779995444139
885972573,3,-7.0189505,1.31505,-5.964,1779995444150
885972583,3,-6.8539505,1.5499501,-6.1920004,1779995444159
885972593,3,-7.3090506,1.8390001,-6.77295,1779995444169
885972603,3,-7.5990005,2.2770002,-7.2040505,1779995444181
885972613,3,-7.5390005,2.64105,-7.14405,1779995444190
885972623,3,-7.8210006,2.94105,-6.9940505,1779995444200
885972633,3,-7.9429502,3.1249502,-7.602,1779995444209
885972643,3,-8.06595,3.28095,-8.691,1779995444220
885972653,3,-7.7539506,3.3600001,-8.325001,1779995444230
885972663,3,-7.4070005,3.2730002,-8.01795,1779995444239
885972674,3,-7.0669503,3.3379502,-8.21895,1779995444250
885972684,3,-7.01205,1.9399501,-8.169001,1779995444260
885972694,3,-6.696,1.0129501,-8.148001,1779995444270
885972704,3,-6.5500503,1.5259501,-7.8889503,1779995444280
885972714,3,-6.7819505,1.6330501,-7.7190003,1779995444289
885972724,3,-7.17705,1.5690001,-7.314,1779995444299
885972734,3,-7.4479504,1.641,-6.9289503,1779995444310
885972744,3,-7.4329505,1.5090001,-6.47205,1779995444321
885972754,3,-7.6510506,1.4490001,-7.0410004,1779995444331
885972764,3,-6.4300504,2.09295,-3.2920501,1779995444341
885972774,3,-6.7249503,2.148,-7.6399503,1779995444350
885972784,3,-7.4380503,1.401,-7.1040006,1779995444360
885972794,3,-6.83505,1.8700501,-6.46395,1779995444371
885972805,3,-6.1410003,1.7389501,-5.9689503,1779995444380
885972815,3,-5.8890004,1.059,-5.9809504,1779995444390
885972825,3,-6.2629504,1.047,-6.0360003,1779995444402
885972835,3,-7.08195,1.368,-6.43095,1779995444411
885972845,3,-7.69395,1.5499501,-6.6940503,1779995444421
885972855,3,-8.20005,1.58595,-6.7920003,1779995444431
885972865,3,-8.226001,1.7050501,-6.72795,1779995444441
885972875,3,-7.8289504,1.19505,-6.47205,1779995444451
885972885,3,-7.3039503,0.84105,-6.6990004,1779995444460
885972895,3,-7.1269503,1.176,-6.591,1779995444471
885972905,3,-7.3570504,1.24605,-7.53,1779995444483
885972915,3,-8.42205,1.5880501,-8.368051,1779995444491
885972925,3,-7.8169503,1.5139501,-7.7839503,1779995444503
885972935,3,-7.4670005,1.131,-7.55595,1779995444513
885972946,3,-7.08195,0.77595,-7.1610003,1779995444522
885972956,3,-7.08405,0.91305006,-6.6319504,1779995444531
885972966,3,-7.29195,1.1020501,-6.43305,1779995444542
885972976,3,-7.386,1.0519501,-6.18195,1779995444552
885972986,3,-7.4790006,0.90795004,-6.1530004,1779995444562
885972996,3,-7.89795,0.68805003,-6.57,1779995444573
885973006,3,-8.001,1.02495,-6.7249503,1779995444583
885973016,3,-8.02005,1.059,-7.0990505,1779995444593
885973026,3,-8.319,0.95100003,-7.0459504,1779995444603
885973036,3,-8.403001,0.96495,-7.1010003,1779995444612
885973046,3,-7.9410005,0.79095006,-6.7249503,1779995444623
885973056,3,-7.8960004,0.573,-6.49305,1779995444633
885973066,3,-8.71695,0.79095006,-6.438,1779995444643
885973076,3,-9.37005,1.12605,-6.01905,1779995444653
885973087,3,-9.519,0.94395006,-5.583,1779995444663
885973097,3,-9.22395,0.73605,-5.23605,1779995444673
885973107,3,-8.71395,0.66105,-4.8169503,1779995444683
885973117,3,-8.31,0.69000006,-4.60395,1779995444693
885973127,3,-8.278951,1.0009501,-4.638,1779995444703
885973137,3,-8.55405,0.92205006,-4.20195,1779995444713
885973147,3,-8.644951,0.633,-4.05795,1779995444724
885973157,3,-8.475,0.47505003,-4.197,1779995444733
885973167,3,-8.7289505,0.59205,-4.14195,1779995444745
885973177,3,-9.406051,0.633,-3.9720001,1779995444755
885973187,3,-9.768001,0.50805,-3.828,1779995444764
885973197,3,-9.670051,0.44400004,-3.2370002,1779995444775
885973207,3,-9.691051,0.62295,-3.0169501,1779995444784
885973218,3,-9.636001,0.66105,-2.634,1779995444794
885973228,3,-9.733951,0.34500003,-2.3440502,1779995444804
885973238,3,-9.868051,0.072000004,-2.229,1779995444814
885973248,3,-10.180051,-0.156,-2.1450002,1779995444824
885973258,3,-10.564951,-0.37905002,-2.2480502,1779995444834
885973268,3,-10.73505,-0.67395,-2.01105,1779995444844
885973278,3,-10.71405,-0.79800004,-1.8870001,1779995444855
885973288,3,-10.623,-0.75705004,-1.626,1779995444865
885973298,3,-10.44795,-0.47505003,-1.5640501,1779995444875
885973308,3,-10.10505,-0.17805001,-1.3789501,1779995444885
885973318,3,-9.880051,0.13695,-1.0510501,1779995444895
885973328,3,-9.651,0.46005002,-0.71400005,1779995444905
885973338,3,-10.000051,0.93000007,-0.43605003,1779995444915
885973348,3,-10.75695,1.57605,0.030000001,1779995444925
885973359,3,-10.62705,1.9399501,-0.61305004,1779995444935
885973369,3,-10.792951,2.0359502,-2.1670501,1779995444945
885973379,3,-10.503,2.35905,-2.0299501,1779995444955
885973389,3,-10.587001,2.3800502,-1.9969501,1779995444966
885973399,3,-11.134951,2.29395,-1.8960001,1779995444975
885973409,3,-11.3220005,2.28495,-1.87995,1779995444986
885973419,3,-10.884001,0.87405,-1.41495,1779995444995
885973429,3,-10.443001,0.606,-0.97200006,1779995445006
885973439,3,-10.371,0.73605,-0.12705001,1779995445015
885973449,3,-10.46895,0.87405,0.77205,1779995445025
885973459,3,-10.668,0.96795005,1.335,1779995445035
885973469,3,-10.88595,0.90300006,1.74705,1779995445046
885973479,3,-11.23995,1.02495,1.9759501,1779995445055
885973489,3,-11.137051,1.023,1.9189501,1779995445066
885973500,3,-10.780951,0.73305005,1.9759501,1779995445077
885973510,3,-11.049001,1.12605,1.34895,1779995445086
885973520,3,-11.092051,1.815,1.014,1779995445096
885973530,3,-10.516951,1.7119501,0.94500005,1779995445108
885973540,3,-9.98595,1.5949501,0.657,1779995445116
885973550,3,-9.96405,1.5979501,0.44700003,1779995445126
885973560,3,-9.82995,1.9780501,0.70995003,1779995445137
885973570,3,-9.592951,2.06205,0.837,1779995445146
885973580,3,-9.80595,1.9450501,1.28505,1779995445156
885973590,3,-10.012051,2.1700501,1.9620001,1779995445167
885973600,3,-10.09305,2.256,3.0349503,1779995445177
885973610,3,-9.92805,2.151,4.4160004,1779995445187
885973620,3,-10.206,2.3470502,3.9589503,1779995445197
885973630,3,-10.431001,2.1070502,4.5739503,1779995445207
885973641,3,-10.387951,2.02095,4.4380503,1779995445217
885973651,3,-10.77105,2.32995,4.17705,1779995445227
885973661,3,-10.46895,2.6149502,3.9610503,1779995445237
885973671,3,-11.05095,3.216,3.8220003,1779995445247
885973681,3,-10.1959505,3.0919502,3.6330001,1779995445257
885973691,3,-9.418051,3.15405,3.6139503,1779995445267
885973701,3,-9.45405,3.25005,2.62995,1779995445277
885973711,3,-9.315001,3.357,2.3089502,1779995445287
885973721,3,-9.208051,3.7909503,2.59695,1779995445297
885973731,3,-9.066,4.734,2.874,1779995445307
885973741,3,-8.905951,5.5069504,2.73105,1779995445317
885973751,3,-8.70195,5.9380503,2.4790502,1779995445327
885973761,3,-8.83905,6.43095,2.3089502,1779995445337
885973772,3,-8.635051,6.91305,2.46195,1779995445348
885973782,3,-8.50395,7.3030505,3.0919502,1779995445358
885973792,3,-8.25195,7.6309505,3.9780002,1779995445368
885973802,3,-7.9630504,7.9129505,4.8640504,1779995445377
885973812,3,-7.60305,8.068951,5.0220003,1779995445388
885973822,3,-7.1370006,8.20995,4.84005,1779995445399
885973832,3,-6.53805,8.124001,4.43295,1779995445408
885973842,3,-6.129,7.7050505,3.6520503,1779995445418
885973852,3,-5.88705,7.2360005,2.7450001,1779995445428
885973862,3,-7.089,5.6509504,1.026,1779995445439
885973872,3,-7.4670005,4.09905,-2.12595,1779995445448
885973882,3,-7.1680503,4.4370003,-0.69000006,1779995445459
885973892,3,-6.6840005,4.5880504,0.71505004,1779995445469
885973902,3,-6.46605,5.136,2.74005,1779995445479
885973913,3,-6.0690002,6.4459505,4.407,1779995445489
885973923,3,-5.2330503,7.2960005,5.7379503,1779995445499
885973933,3,-4.60605,7.7890506,5.9010005,1779995445509
885973943,3,-4.24695,7.8559504,5.94105,1779995445519
885973953,3,-4.5600004,7.62405,6.5470505,1779995445529
885973963,3,-4.86,7.11105,6.8650503,1779995445539
885973973,3,-4.95795,6.3570004,6.3439503,1779995445549
885973983,3,-4.7689505,5.5930505,5.5750504,1779995445559
885973993,3,-4.63905,5.0020504,4.28205,1779995445569
885974003,3,-4.0339503,4.9420505,3.31995,1779995445579
885974013,3,-3.03795,4.842,3.834,1779995445589
885974023,3,-1.8499501,4.3720503,4.5930004,1779995445599
885974033,3,-1.1920501,3.9409502,5.3910003,1779995445610
885974043,3,-1.06305,3.6210003,5.7229505,1779995445620
885974054,3,-0.66495,3.3289502,4.74195,1779995445630
885974064,3,-0.21705002,3.3379502,4.1530504,1779995445640
885974074,3,0.093,3.5370002,4.155,1779995445650
885974084,3,0.402,3.66405,4.5360003,1779995445660
885974094,3,0.37095,3.5389502,5.15805,1779995445670
885974104,3,0.18405001,3.6469502,5.6059504,1779995445680
885974114,3,-0.165,3.73305,5.52495,1779995445690
885974124,3,-0.483,3.55395,5.44995,1779995445700
885974134,3,-0.61005,3.2659502,5.2969503,1779995445711
885974144,3,-0.44700003,3.3330002,5.72805,1779995445721
885974154,3,-0.18900001,3.5779502,6.7909503,1779995445731
885974164,3,-0.21705002,3.7140002,7.2559505,1779995445741
885974174,3,-0.54795,3.69705,6.88005,1779995445750
885974185,3,-0.61005,3.1369503,6.94395,1779995445765
885974195,3,-0.69600004,2.19405,7.2289505,1779995445771
885974205,3,-0.84900004,1.1910001,7.82595,1779995445785
885974215,3,-1.266,0.70395005,8.710951,1779995445793
885974225,3,-1.7950501,0.49905002,9.37905,1779995445800
885974235,3,-1.7299501,-0.147,11.247001,1779995445810
885974245,3,-1.7190001,-0.75705004,12.430051,1779995445821
885974255,3,-1.5990001,-0.9799501,13.31805,1779995445831
885974265,3,-2.0629501,-1.00395,13.864051,1779995445841
885974275,3,-2.80095,-0.71895003,13.737,1779995445851
885974285,3,-3.1890001,-0.63495004,13.246051,1779995445861
885974295,3,-3.39,-0.87000006,12.990001,1779995445871
885974305,3,-3.3130503,-1.11405,12.622951,1779995445881
885974315,3,-3.2629502,-1.42095,12.37905,1779995445894
885974326,3,-3.213,-1.8970501,12.288,1779995445901
885974336,3,-3.3660002,-1.9519501,12.552001,1779995445913
885974346,3,-3.3390002,-1.7029501,12.640051,1779995445922
885974356,3,-3.1909502,-1.5160501,12.159,1779995445932
885974366,3,-2.9590502,-1.3579501,11.7640505,1779995445942
885974376,3,-2.87505,-1.0350001,11.6320505,1779995445952
885974386,3,-2.595,-0.85605,11.14605,1779995445963
885974396,3,-2.3719501,-0.85800004,10.833,1779995445973
885974406,3,-2.16105,-1.04505,10.663051,1779995445982
885974416,3,-1.98705,-1.3969501,10.50195,1779995445992
885974426,3,-1.8690001,-1.593,10.095,1779995446003
885974436,3,-1.76205,-1.65795,9.925051,1779995446013
885974446,3,-1.4670001,-1.6840501,9.913051,1779995446023
885974456,3,-1.30005,-1.65795,10.722,1779995446033
885974467,3,-1.3039501,-1.7340001,11.776051,1779995446044
885974477,3,-1.11,-1.9350001,11.635051,1779995446053
885974487,3,-1.35,-2.2150502,11.091001,1779995446063
885974497,3,-1.5960001,-2.4019501,10.440001,1779995446073
885974507,3,-1.5510001,-2.3779502,10.10505,1779995446083
885974517,3,-1.4430001,-2.29005,9.97095,1779995446093
885974527,3,-1.24395,-2.46,9.658951,1779995446103
885974537,3,-1.2090001,-2.6490002,9.17595,1779995446115
885974547,3,-1.2040501,-2.8930502,8.71905,1779995446124
885974557,3,-1.2040501,-3.0580502,8.307,1779995446134
885974567,3,-0.9670501,-3.3289502,7.9810505,1779995446144
885974577,3,-0.61695004,-3.5440502,7.8829503,1779995446153
885974587,3,-0.483,-3.66405,8.067,1779995446164
885974598,3,-0.58095,-3.5970001,8.161051,1779995446174
885974608,3,-0.80595005,-3.5419502,8.079,1779995446184
885974618,3,-0.87600005,-3.5989501,8.304001,1779995446194
885974628,3,-0.957,-3.7429502,8.271001,1779995446204
885974638,3,-0.98805004,-3.9420002,8.127001,1779995446214
885974648,3,-1.0339501,-3.86295,8.26395,1779995446226
885974658,3,-1.48905,-4.0609503,12.89595,1779995446234
885974668,3,-2.97105,-5.08605,18.87195,1779995446244
885974678,3,-0.021000002,-4.6600504,3.7360501,1779995446255
885974688,3,0.32505003,-5.40705,5.544,1779995446267
885974698,3,-0.24105,-5.72805,7.3660502,1779995446276
885974708,3,-0.80205005,-4.737,8.977051,1779995446284
885974718,3,-0.87105006,-4.90395,9.439051,1779995446295
885974728,3,-0.74595004,-5.3830504,9.504001,1779995446305
885974739,3,-0.744,-5.1600003,9.693001,1779995446315
885974749,3,-0.76095,-4.8229504,9.777,1779995446325
885974759,3,-0.76095,-4.56405,9.825001,1779995446334
885974769,3,-0.83505005,-4.37505,10.272,1779995446346
885974779,3,-1.0669501,-4.1740503,10.714951,1779995446356
885974789,3,-1.0360501,-4.25295,11.194051,1779995446365
885974799,3,-1.05795,-4.3969502,11.424001,1779995446375
885974809,3,-0.9979501,-4.42005,11.395051,1779995446385
885974819,3,-0.78495,-4.2340503,11.062051,1779995446396
885974829,3,-0.67905,-3.8149502,10.536,1779995446405
885974839,3,-0.61695004,-3.27795,10.18095,1779995446415
885974849,3,-0.63405,-2.7280502,10.311001,1779995446425
885974859,3,-0.75600004,-2.148,10.548,1779995446435
885974869,3,-0.87600005,-1.64295,10.64805,1779995446446
885974880,3,-0.85905004,-1.2270001,11.031,1779995446456
885974890,3,-0.84705,-0.81000006,10.60995,1779995446466
885974900,3,-0.55005,-0.51105005,9.561001,1779995446476
885974910,3,-0.20295002,-0.25500003,8.986951,1779995446486
885974920,3,0.0,0.30705002,8.65905,1779995446498
885974930,3,0.14595,1.1209501,8.259001,1779995446506
885974940,3,0.411,1.66005,7.5880504,1779995446516
885974950,3,0.48105,2.6100001,6.741,1779995446527
885974960,3,0.615,3.8100002,5.7450004,1779995446537
885974970,3,0.90000004,4.9230003,5.33295,1779995446546
885974980,3,0.90900004,5.55,5.4739504,1779995446556
885974990,3,0.68895006,5.8110003,5.4910502,1779995446567
885975000,3,0.47100002,6.22095,5.3479505,1779995446577
885975011,3,0.41805002,6.7039504,5.5009503,1779995446587
885975021,3,0.51405,7.1689506,5.62995,1779995446597
885975031,3,0.91605,7.3170004,5.532,1779995446607
885975041,3,1.3759501,7.1520004,4.9120502,1779995446617
885975051,3,1.5679501,7.2070503,4.4209504,1779995446627
885975061,3,1.4170501,7.3080006,4.347,1779995446637
885975071,3,1.491,6.8910003,4.3969502,1779995446647
885975081,3,1.2559501,7.1310005,3.8850002,1779995446657
885975091,3,0.90705,7.2190504,3.6400502,1779995446668
885975101,3,0.56700003,7.1590505,3.7549503,1779995446678
885975111,3,0.30600002,6.6540003,4.1070004,1779995446687
885975121,3,0.201,6.3169503,4.3560004,1779995446697
885975131,3,0.112050004,5.7780004,4.63905,1779995446708
885975141,3,-0.294,5.60295,5.4100504,1779995446719
885975152,3,-0.39195,5.1859503,5.6520004,1779995446728
885975162,3,-0.65805006,4.6650004,5.81895,1779995446738
885975172,3,-0.88500005,3.8580003,5.75895,1779995446747
885975182,3,-0.97200006,3.0600002,5.86005,1779995446758
885975192,3,-1.00695,2.187,6.5179505,1779995446769
885975202,3,-0.64605004,1.4950501,6.7819505,1779995446778
885975212,3,-0.28005,0.74505,8.22795,1779995446789
885975222,3,-0.16695,0.63705003,10.950001,1779995446798
885975232,3,0.21300001,0.795,12.087001,1779995446809
885975242,3,-0.0139500005,0.84105,11.191951,1779995446819
885975252,3,-0.13395001,0.74295,10.473001,1779995446829
885975262,3,-0.18900001,0.59895,9.70005,1779995446838
885975272,3,-0.33900002,0.31395,9.625951,1779995446849
885975282,3,-0.38700002,-0.13695,9.922951,1779995446859
885975293,3,-0.62895006,-0.69795,10.03995,1779995446869
885975303,3,-0.80895007,-1.21905,11.14395,1779995446880
885975313,3,-1.14405,-1.5979501,12.53295,1779995446889
885975323,3,-1.21305,-1.93095,13.714951,1779995446899
885975333,3,-1.1580001,-1.9380001,15.043951,1779995446910
885975343,3,-1.3879501,-1.6669501,15.676051,1779995446920
885975353,3,-2.0059502,-1.3969501,16.879951,1779995446929
885975363,3,-2.7190502,-1.677,16.56705,1779995446940
885975373,3,-2.8129501,-1.9519501,14.91705,1779995446951
885975383,3,-2.6449502,-1.95,12.757951,1779995446960
885975393,3,-2.18505,-2.0070002,10.66005,1779995446970
885975403,3,-0.9480001,-2.04495,8.710951,1779995446982
885975413,3,0.708,-1.8679501,6.7050004,1779995446990
885975424,3,1.16505,-1.6650001,5.2330503,1779995447000
885975434,3,0.79200006,-1.5810001,5.352,1779995447010
885975444,3,0.53295004,-1.4680501,6.98295,1779995447020
885975454,3,0.39495003,-1.4970001,9.463051,1779995447030
885975464,3,0.045,-1.3579501,12.670951,1779995447040
885975474,3,-0.46905002,-0.666,14.239951,1779995447050
885975484,3,-0.624,-0.076950006,13.98795,1779995447060
885975494,3,-0.65295005,0.20700002,12.82005,1779995447070
885975504,3,-0.54105,0.26595002,11.401951,1779995447081
885975514,3,-0.35895002,0.37905002,10.11705,1779995447091
885975524,3,-0.28905,0.75000006,8.90295,1779995447101
885975534,3,-0.34695002,1.1689501,8.014951,1779995447111
885975544,3,-0.42795002,1.4800501,7.7029505,1779995447123
885975554,3,-0.354,1.45395,8.182051,1779995447131
885975565,3,-0.69600004,1.4250001,9.375,1779995447141
885975575,3,-1.1700001,0.96795005,10.440001,1779995447151
885975585,3,-0.88995004,0.36,11.038951,1779995447164
885975595,3,-0.54300004,-0.23295002,11.11305,1779995447172
885975605,3,-0.21495001,-0.549,11.11995,1779995447181
885975615,3,-0.0019500001,-0.633,10.974001,1779995447191
885975625,3,0.112050004,-0.59895,10.91895,1779995447201
885975635,3,0.17400001,-0.56295,11.070001,1779995447211
885975645,3,0.26805001,-0.59895,11.163,1779995447221
885975655,3,0.37800002,-0.62295,11.01,1779995447231
885975665,3,0.411,-0.62295,10.1959505,1779995447241
885975675,3,0.423,-0.55095005,9.17805,1779995447253
885975685,3,0.27705002,-0.57105005,8.86005,1779995447261
885975695,3,0.21705002,-0.39795002,9.06105,1779995447271
885975706,3,0.37995002,-0.25905,9.4459505,1779995447282
885975716,3,0.59295005,-0.27405003,9.68595,1779995447292
885975726,3,0.67200005,-0.45795003,9.90795,1779995447302
885975736,3,0.68205005,-0.822,10.102051,1779995447312
885975746,3,0.78195006,-0.96300006,10.45695,1779995447323
885975756,3,0.87105006,-0.93495005,10.576051,1779995447332
885975766,3,0.88995004,-0.83595,10.366051,1779995447342
885975776,3,0.94995004,-0.69795,9.990001,1779995447353
885975786,3,1.0890001,-0.549,9.363001,1779995447362
885975796,3,1.2400501,-0.45105,8.776051,1779995447373
885975806,3,1.3090501,-0.43905002,8.436001,1779995447383
885975816,3,1.51995,-0.38595003,8.40705,1779995447393
885975826,3,1.7400001,-0.40800002,8.77095,1779995447403
885975836,3,1.82895,-0.47505003,8.99895,1779995447413
885975847,3,1.8409501,-0.54195005,9.0060005,1779995447424
885975857,3,1.86705,-0.59205,9.240001,1779995447433
885975867,3,1.7659501,-0.71205,9.657001,1779995447443
885975877,3,1.6870501,-0.80295,10.32705,1779995447453
885975887,3,1.67805,-0.89100003,11.2900505,1779995447463
885975897,3,1.7070001,-0.98505,11.953051,1779995447473
885975907,3,1.6710001,-1.00605,12.139951,1779995447483
885975917,3,1.66305,-0.99000007,11.974951,1779995447493
885975927,3,1.5510001,-0.91995007,11.24205,1779995447503
885975937,3,1.3810501,-0.71400005,10.29195,1779995447513
885975947,3,1.27995,-0.441,9.67395,1779995447523
885975957,3,1.25205,-0.13995,9.327001,1779995447534
885975967,3,1.2349501,0.108,9.295951,1779995447544
885975978,3,1.197,0.20700002,9.52095,1779995447554
885975988,3,1.197,0.135,9.68805,1779995447564
885975998,3,1.2540001,-0.006,9.766951,1779995447575
885976008,3,1.3240501,-0.27405003,9.657001,1779995447584
885976018,3,1.4620501,-0.53505003,9.135,1779995447594
885976028,3,1.6180501,-0.84405005,8.58195,1779995447604
885976038,3,1.6159501,-1.3579501,8.2879505,1779995447614
885976048,3,1.52505,-1.93305,8.400001,1779995447624
885976058,3,1.5150001,-2.31795,8.62005,1779995447635
885976068,3,1.5370501,-2.4790502,8.87895,1779995447645
885976078,3,1.55595,-2.4520502,9.09405,1779995447654
885976088,3,1.7860501,-2.1769502,9.47295,1779995447665
885976098,3,2.0010002,-1.9230001,10.074,1779995447675
885976108,3,1.9650002,-1.79595,10.74195,1779995447685
885976119,3,1.86195,-1.62405,11.2879505,1779995447695
885976129,3,1.6680001,-1.34595,11.42205,1779995447705
885976139,3,1.3090501,-1.02795,11.20905,1779995447715
885976149,3,1.0309501,-0.68595004,11.139001,1779995447725
885976159,3,0.96000004,-0.33600003,11.352,1779995447735
885976169,3,1.1200501,-0.025050001,11.78295,1779995447745
885976179,3,1.233,0.22605,12.231001,1779995447755
885976189,3,1.3069501,0.44805002,12.34605,1779995447767
885976199,3,1.29495,0.53895,12.087001,1779995447775
885976209,3,1.1869501,0.67095006,11.653951,1779995447785
885976219,3,1.0189501,0.89595,11.0119505,1779995447796
885976229,3,0.79905003,1.13505,10.665001,1779995447805
885976239,3,0.63900006,1.45605,10.69095,1779995447815
885976249,3,0.555,1.4749501,10.939951,1779995447826
885976260,3,0.507,1.3560001,11.038951,1779995447836
885976270,3,0.57705003,1.29795,10.861051,1779995447846
885976280,3,0.58095,1.281,10.600051,1779995447859
885976290,3,0.58395004,1.4250001,10.251,1779995447866
885976300,3,0.624,1.485,9.937051,1779995447877
885976310,3,0.49305,1.5589501,9.691051,1779995447886
885976320,3,0.48105,1.8580501,9.492001,1779995447896
885976330,3,0.38295,2.0640001,9.501,1779995447906
885976340,3,0.27705002,2.1070502,9.66705,1779995447916
885976350,3,0.24405001,1.9930501,9.98295,1779995447926
885976360,3,0.13800001,1.7340001,10.114051,1779995447936
885976370,3,-0.10695001,1.71,9.8220005,1779995447947
885976380,3,-0.12900001,1.83,9.23595,1779995447957
885976391,3,-0.18105,1.7320501,8.809951,1779995447967
885976401,3,-0.30405003,1.4779501,8.40495,1779995447977
885976411,3,-0.45000002,1.30305,8.091001,1779995447987
885976421,3,-0.44205,1.26495,7.9879503,1779995447997
885976431,3,-0.34695002,1.09695,8.568001,1779995448007
885976441,3,-0.40695003,0.96495,9.36495,1779995448017
885976451,3,-0.36105,0.882,9.738001,1779995448027
885976461,3,-0.177,0.74295,9.82005,1779995448038
885976471,3,-0.16005,0.70005006,9.801001,1779995448048
885976481,3,0.022950001,0.68295,9.70695,1779995448058
885976491,3,0.102000006,0.56595004,9.22605,1779995448068
885976501,3,0.10005,0.42705002,8.6970005,1779995448078
885976511,3,0.18105,0.31905,8.235001,1779995448088
885976521,3,0.31305,0.252,7.9429502,1779995448098
885976532,3,0.36600003,0.24495001,7.8610506,1779995448109
885976542,3,0.43995002,0.22800002,7.9759502,1779995448118
885976552,3,0.39495003,0.192,8.244,1779995448129
885976562,3,0.52095,0.25695002,8.686951,1779995448138
