icm4n607_acc,iven_sense,2026-06-11_21-49-00.661_Active 10 Pro
imuTimestamp,accuracy(more=better),acc_x[m/s^2],acc_y[m/s^2],acc_z[m/s^2],utcTimestamp(millis)
2094272271,3,-1.14195,5.66295,8.72805,1781203743848
2094272281,3,-1.04595,5.8690505,8.224951,1781203743858
2094272291,3,-0.897,5.775,7.7110505,1781203743867
2094272301,3,-0.68700004,5.6959505,7.3750505,1781203743878
2094272311,3,-0.52095,5.61,7.29405,1781203743888
2094272321,3,-0.45000002,5.55495,7.2990003,1781203743898
2094272331,3,-0.20805001,5.6800504,7.3609505,1781203743908
2094272341,3,-0.15795001,5.5410004,7.7440505,1781203743917
2094272351,3,-0.31305,5.4469504,7.8880506,1781203743928
2094272362,3,-0.44505003,5.4570003,8.014951,1781203743937
2094272372,3,-0.44205,5.34,8.151,1781203743950
2094272382,3,-0.34695002,5.196,8.25195,1781203743958
2094272392,3,-0.25095,4.959,8.54595,1781203743968
2094272402,3,-0.040050004,4.7650504,8.565001,1781203743982
2094272412,3,0.22905001,4.57095,8.635051,1781203743988
2094272422,3,0.45000002,4.3560004,8.674951,1781203743998
2094272432,3,0.591,4.3219504,8.668051,1781203744010
2094272442,3,0.64395005,4.49895,8.721001,1781203744019
2094272452,3,0.63900006,4.72695,8.769,1781203744030
2094272462,3,0.624,4.92495,8.90505,1781203744039
2094272472,3,0.531,4.8970504,8.98005,1781203744049
2094272482,3,0.44205,4.78695,8.830951,1781203744059
2094272493,3,0.41805002,4.67205,8.71905,1781203744070
2094272503,3,0.31800002,4.66905,8.829,1781203744081
2094272513,3,0.15495001,4.722,8.96805,1781203744090
2094272523,3,-0.028050002,4.8630004,9.444,1781203744099
2094272533,3,-0.16005,5.5069504,8.920051,1781203744111
2094272543,3,-0.43995002,6.0409503,8.65905,1781203744120
2094272553,3,-0.56895,5.97195,8.75895,1781203744131
2094272563,3,-0.34905002,5.55495,8.88405,1781203744141
2094272573,3,-0.17205001,5.8039503,8.616,1781203744152
2094272583,3,-0.39000002,6.2179503,8.058001,1781203744161
2094272593,3,-0.63195,6.3480005,7.7700005,1781203744171
2094272603,3,-0.588,6.25395,7.7539506,1781203744181
2094272613,3,-0.36795002,6.1200004,7.9090505,1781203744192
2094272623,3,-0.36600003,5.9089503,7.9260006,1781203744201
2094272634,3,-0.60300004,5.682,7.8949504,1781203744212
2094272644,3,-0.75105006,5.83995,8.09805,1781203744221
2094272654,3,-0.555,6.2400002,8.154,1781203744231
2094272664,3,-0.56205004,6.2689505,8.27805,1781203744241
2094272674,3,-0.49695003,6.11805,8.2560005,1781203744252
2094272684,3,-0.37800002,5.5960503,8.149051,1781203744262
2094272694,3,-0.12900001,4.9279504,7.938,1781203744272
2094272704,3,0.14595,4.4440503,7.96395,1781203744282
2094272714,3,0.363,4.6480503,8.187,1781203744292
2094272724,3,0.45195,4.533,7.9879503,1781203744302
2094272734,3,0.342,4.767,8.40705,1781203744312
2094272744,3,0.30600002,5.0070004,8.6320505,1781203744322
2094272754,3,0.43500003,5.18895,8.58705,1781203744332
2094272765,3,0.49995002,5.12895,8.874001,1781203744342
2094272775,3,0.49995002,4.9729505,8.934,1781203744352
2094272785,3,0.49305,4.7700005,8.84805,1781203744362
2094272795,3,0.45405003,4.6000504,8.995951,1781203744372
2094272805,3,0.42600003,4.4869504,9.109051,1781203744382
2094272815,3,0.40395,4.46805,9.085051,1781203744392
2094272825,3,0.40695003,4.5259504,9.25695,1781203744403
2094272835,3,0.44700003,4.3510504,9.54705,1781203744413
2094272845,3,0.55995005,4.1860504,9.729,1781203744423
2094272855,3,0.59295005,4.1140504,9.79605,1781203744433
2094272865,3,0.69600004,4.53795,9.99195,1781203744443
2094272875,3,0.64605004,5.019,10.16205,1781203744453
2094272885,3,0.46605003,5.004,10.17195,1781203744462
2094272895,3,0.36600003,4.93695,10.19295,1781203744473
2094272906,3,0.42600003,4.8130503,10.074,1781203744484
2094272916,3,0.57195,4.78905,9.942,1781203744493
2094272926,3,0.79200006,4.67595,9.937051,1781203744504
2094272936,3,1.02405,4.8370504,9.762,1781203744512
2094272946,3,1.2559501,5.0809503,9.760051,1781203744525
2094272956,3,1.4860501,5.4139504,9.585,1781203744534
2094272966,3,1.62495,5.3899503,9.36705,1781203744544
2094272976,3,1.74495,5.433,9.02505,1781203744554
2094272986,3,1.7830501,5.17005,8.785951,1781203744564
2094272996,3,1.7760001,4.8700504,8.71905,1781203744574
2094273006,3,1.7659501,5.019,9.351001,1781203744584
2094273016,3,1.6369501,5.2440004,9.777,1781203744594
2094273026,3,1.36395,5.2200003,9.777,1781203744604
2094273037,3,1.3120501,5.2579503,9.657001,1781203744614
2094273047,3,1.5130501,5.1480002,9.1039505,1781203744624
2094273057,3,1.7160001,4.65,8.532001,1781203744633
2094273067,3,1.8769501,4.281,8.326051,1781203744643
2094273077,3,1.9720501,4.2460504,8.22105,1781203744653
2094273087,3,2.05605,4.43895,8.53905,1781203744664
2094273097,3,2.1450002,4.3099504,8.412001,1781203744673
2094273107,3,2.15205,4.42695,8.09805,1781203744684
2094273117,3,1.8529501,4.51095,7.3390503,1781203744693
2094273127,3,1.47,4.61205,7.1929502,1781203744704
2094273137,3,1.077,4.66695,7.27995,1781203744713
2094273147,3,0.83505005,4.3890004,6.885,1781203744724
2094273157,3,1.0189501,4.6860003,7.5649505,1781203744734
2094273167,3,1.1539501,5.41905,7.7700005,1781203744744
2094273178,3,0.98805004,5.55495,7.2010503,1781203744754
2094273188,3,0.61200005,5.5290003,7.1929502,1781203744768
2094273198,3,0.25605002,5.5530005,7.0020003,1781203744774
2094273208,3,0.10005,5.34705,6.5400004,1781203744784
2094273218,3,0.21705002,5.13105,6.1519504,1781203744800
2094273228,3,0.39195,5.01405,5.5459504,1781203744805
2094273238,3,0.43500003,4.8109503,5.02395,1781203744814
2094273248,3,0.25095,4.9230003,5.26905,1781203744824
2094273258,3,-0.25605002,5.493,6.0679502,1781203744834
2094273268,3,-0.68895006,5.84205,6.6979504,1781203744845
2094273278,3,-0.88095003,5.80905,7.18095,1781203744855
2094273288,3,-0.96195006,5.89305,7.5259504,1781203744866
2094273298,3,-1.09395,6.4750504,7.3420506,1781203744876
2094273309,3,-0.93105006,6.5269504,7.0810504,1781203744885
2094273319,3,-0.93105006,6.9370503,6.6790504,1781203744896
2094273329,3,-0.94500005,7.4989505,6.5280004,1781203744905
2094273339,3,-0.84495,7.7650504,6.15,1781203744916
2094273349,3,-0.82305,8.103001,5.84595,1781203744926
2094273359,3,-1.1580001,8.598001,5.4859505,1781203744935
2094273369,3,-1.8840001,9.37395,4.75605,1781203744948
2094273379,3,-2.2759502,10.405951,4.9290004,1781203744956
2094273389,3,-2.1450002,10.320001,6.23295,1781203744966
2094273399,3,-1.917,9.778951,7.11,1781203744975
2094273409,3,-1.9650002,9.181951,7.2319503,1781203744985
2094273419,3,-2.298,8.754001,6.4459505,1781203744996
2094273429,3,-1.9770001,8.41905,5.6730003,1781203745006
2094273439,3,-1.35,8.124001,5.091,1781203745016
2094273450,3,-0.78000003,7.8490505,4.3780503,1781203745028
2094273460,3,-0.40395,7.36005,4.05,1781203745035
2094273470,3,0.040050004,7.18095,4.29195,1781203745045
2094273480,3,-0.031050002,6.4960504,5.07495,1781203745058
2094273490,3,-0.53595,5.8950005,5.2639503,1781203745067
2094273500,3,-1.0530001,5.8039503,4.93305,1781203745077
2094273510,3,-1.3789501,5.5930505,4.668,1781203745086
2094273520,3,-1.3570501,5.15805,4.533,1781203745097
2094273530,3,-0.93795,4.638,4.57695,1781203745108
2094273540,3,-0.36600003,4.308,5.4889503,1781203745118
2094273550,3,0.39000002,4.368,6.4489503,1781203745128
2094273560,3,0.85905004,4.5259504,6.6160502,1781203745136
2094273570,3,1.2280501,5.301,6.5470505,1781203745148
2094273581,3,1.4260501,6.063,6.7099504,1781203745158
2094273591,3,1.218,6.4890003,6.9559503,1781203745168
2094273601,3,0.73695004,7.2649503,7.2990003,1781203745178
2094273611,3,0.41400003,8.007,8.10795,1781203745188
2094273621,3,0.17205001,8.41605,8.841001,1781203745198
2094273631,3,-0.055050004,9.07005,9.319051,1781203745208
2094273641,3,0.00405,9.508051,8.283,1781203745218
2094273651,3,0.35895002,9.714001,7.4380503,1781203745229
2094273661,3,0.90195006,9.781051,7.143,1781203745239
2094273671,3,1.3909501,9.640051,6.6550503,1781203745249
2094273681,3,1.59405,9.181951,7.0210505,1781203745259
2094273691,3,1.6279501,8.847,7.3560004,1781203745269
2094273701,3,1.6350001,8.839951,7.5000005,1781203745279
2094273711,3,1.33305,8.601001,7.2700505,1781203745289
2094273722,3,0.873,8.194051,6.9040504,1781203745299
2094273732,3,0.49995002,8.064,7.0020003,1781203745309
2094273742,3,0.11400001,8.00205,7.2460504,1781203745320
2094273752,3,-0.33,8.103001,7.0309505,1781203745329
2094273762,3,-0.68700004,8.701051,6.6930003,1781203745340
2094273772,3,-1.1530501,9.336,6.885,1781203745350
2094273782,3,-1.5490501,9.903001,6.7939506,1781203745360
2094273792,3,-1.9120501,9.91005,6.1090503,1781203745370
2094273802,3,-2.1690001,9.754951,5.5200005,1781203745380
2094273812,3,-2.193,9.5460005,5.0820003,1781203745391
2094273822,3,-2.181,9.17805,4.9879503,1781203745400
2094273832,3,-2.14905,8.862,5.355,1781203745410
2094273842,3,-2.3359501,8.47395,5.4580503,1781203745420
2094273853,3,-2.5780501,8.172,4.9759502,1781203745430
2094273863,3,-2.9989502,7.8919506,4.34205,1781203745441
2094273873,3,-3.1219501,8.0140505,3.4699502,1781203745451
2094273883,3,-3.2770503,8.26305,3.1690502,1781203745461
2094273893,3,-3.3390002,8.268001,3.7390501,1781203745470
2094273903,3,-3.11205,8.328,4.617,1781203745480
2094273913,3,-2.8129501,8.60805,5.247,1781203745490
2094273923,3,-2.53695,8.890051,5.2180505,1781203745501
2094273933,3,-2.427,9.015,5.43405,1781203745511
2094273943,3,-2.22105,8.48595,6.0060005,1781203745521
2094273953,3,-1.9650002,8.349,5.9770503,1781203745531
2094273963,3,-1.5990001,7.6140003,6.43905,1781203745541
2094273973,3,-1.32105,7.6140003,6.8490005,1781203745551
2094273983,3,-1.24395,7.3819504,7.32,1781203745561
2094273994,3,-1.31595,7.36005,7.0690503,1781203745572
2094274004,3,-1.4770501,7.8220506,6.6070504,1781203745581
2094274014,3,-1.695,8.09805,6.02295,1781203745591
2094274024,3,-1.9459502,7.9180503,6.2310004,1781203745602
2094274034,3,-2.1709502,8.208,7.227,1781203745612
2094274044,3,-2.43195,8.6320505,9.087001,1781203745621
2094274054,3,-1.9099501,8.40705,7.3560004,1781203745631
2094274064,3,-1.383,8.44995,7.6600504,1781203745644
2094274074,3,-0.99105006,8.433001,7.464,1781203745651
2094274084,3,-0.79395,8.34195,6.6520505,1781203745662
2094274094,3,-0.58395004,8.26305,6.162,1781203745672
2094274104,3,-0.35895002,7.8700504,5.8380003,1781203745682
2094274114,3,-0.25095,7.8300004,6.0370502,1781203745692
2094274124,3,-0.13800001,7.7389503,5.18205,1781203745703
2094274135,3,0.0139500005,7.6090503,4.48995,1781203745713
2094274145,3,-0.061950002,6.8500504,4.122,1781203745724
2094274155,3,0.22500001,5.30595,5.0149503,1781203745732
2094274165,3,0.53595,5.7400503,7.69605,1781203745744
2094274175,3,0.648,4.8439503,6.23295,1781203745753
2094274185,3,0.35595003,5.2699504,6.2910004,1781203745764
2094274225,3,-0.64605004,8.8279505,3.693,1781203745801
2094274235,3,-1.05795,8.713051,7.3630505,1781203745811
2094274245,3,-1.7070001,9.82905,17.30895,1781203745821
2094274255,3,-0.85395,8.919001,5.4480004,1781203745831
2094274266,3,-0.98805004,8.64105,5.19705,1781203745842
2094274276,3,-0.96900004,8.6320505,5.4310503,1781203745852
2094274286,3,-1.074,9.205951,5.47695,1781203745862
2094274296,3,-1.2780001,9.348001,5.9269505,1781203745872
2094274306,3,-1.04595,9.679951,5.3430004,1781203745882
2094274316,3,-1.065,10.248,5.142,1781203745892
2094274326,3,-1.08405,7.39095,5.2060504,1781203745902
2094274336,3,-1.23705,7.8940506,4.96005,1781203745912
2094274346,3,-1.218,8.72505,4.749,1781203745922
2094274356,3,-1.4100001,9.007951,5.2039504,1781203745933
2094274366,3,-1.09605,7.7749505,5.5750504,1781203745942
2094274376,3,-0.91605,8.047951,5.95305,1781203745953
2094274386,3,-0.84000003,8.28495,6.01305,1781203745962
2094274396,3,-0.59295005,9.10095,6.3240004,1781203745973
2094274407,3,-0.33705002,10.759951,8.88405,1781203745983
2094274417,3,-0.89505005,10.582951,11.635051,1781203745993
2094274427,3,-1.7809501,9.405001,9.35295,1781203746003
2094274437,3,-3.186,8.955001,8.04105,1781203746013
2094274447,3,-4.2520504,8.821051,8.118,1781203746023
2094274457,3,-3.7459502,8.239051,7.7920504,1781203746034
2094274467,3,-2.77005,8.170051,7.87095,1781203746043
2094274477,3,-1.9410001,7.2499504,7.7539506,1781203746053
2094274487,3,-1.86195,7.1280003,7.7730002,1781203746064
2094274497,3,-1.74495,6.97695,7.2700505,1781203746073
2094274507,3,-0.68205005,8.976001,1.34895,1781203746084
2094274517,3,-0.59595,8.28195,0.58995,1781203746093
2094274527,3,-0.35895002,8.680051,5.43405,1781203746104
2094274538,3,0.28695002,8.57205,7.9999504,1781203746113
2094274548,3,0.79695004,8.677051,6.846,1781203746124
2094274558,3,0.99600005,8.548051,5.94105,1781203746134
2094274568,3,0.86895007,8.00895,6.09,1781203746144
2094274578,3,0.80595005,8.136001,6.7909503,1781203746154
2094274588,3,1.1730001,7.827,5.9479504,1781203746164
2094274598,3,1.695,6.8100004,2.7930002,1781203746174
2094274608,3,2.772,6.1420503,6.4230003,1781203746184
2094274618,3,3.4110003,5.6650505,8.035951,1781203746195
2094274628,3,3.6720002,4.9110003,6.55695,1781203746205
2094274638,3,3.7110002,4.67205,4.6150503,1781203746215
2094274648,3,3.86595,4.84905,4.25595,1781203746225
2094274658,3,4.1610003,5.5189505,5.958,1781203746234
2094274668,3,4.4359503,5.4040504,5.29005,1781203746246
2094274679,3,3.9190502,5.4019504,5.77395,1781203746255
2094274689,3,3.7680001,5.29395,5.3710504,1781203746265
2094274699,3,3.59295,4.9180503,4.7059503,1781203746274
2094274709,3,2.83695,5.2200003,3.9780002,1781203746286
2094274719,3,2.4439502,6.2779503,3.8100002,1781203746295
2094274729,3,2.26005,6.8430004,5.07705,1781203746308
2094274739,3,2.6550002,7.2739506,4.8109503,1781203746316
2094274749,3,2.8219502,6.4030504,4.9669504,1781203746325
2094274759,3,2.5159502,5.6290503,4.5019503,1781203746334
2094274769,3,2.19495,7.557,3.2209501,1781203746345
2094274779,3,0.99600005,10.971001,1.5769501,1781203746355
2094274789,3,0.33,9.345,0.77505004,1781203746366
2094274799,3,-0.117000006,9.228001,1.0570501,1781203746376
2094274810,3,0.07095,8.43105,1.8739501,1781203746386
2094274820,3,-0.22905001,7.7080503,2.02395,1781203746396
2094274830,3,-0.26295,8.160001,2.4150002,1781203746407
2094274840,3,-0.40395,8.574,2.9290502,1781203746416
2094274850,3,-0.67005,9.08895,3.3030002,1781203746426
2094274860,3,-0.17400001,9.931951,4.1290503,1781203746436
2094274870,3,1.1890501,9.163051,5.3760004,1781203746446
2094274880,3,2.4780002,8.589001,5.6610003,1781203746457
2094274890,3,3.2010002,8.541,7.8900003,1781203746466
2094274900,3,3.18405,9.57495,10.557,1781203746476
2094274910,3,2.73105,9.99195,12.898951,1781203746486
2094274920,3,1.5960001,12.003,9.94005,1781203746497
2094274930,3,1.644,12.079051,3.4729502,1781203746507
2094274940,3,0.37500003,12.967951,3.28605,1781203746517
2094274951,3,-0.55005,13.291051,2.3119502,1781203746527
2094274961,3,-1.08405,13.582951,1.4500501,1781203746537
2094274971,3,-1.4790001,12.616051,0.99195004,1781203746547
2094274981,3,-1.0000501,11.47095,1.713,1781203746557
2094274991,3,-0.59595,11.40705,2.1750002,1781203746567
2094275001,3,0.29895002,10.674001,-0.094050005,1781203746577
2094275011,3,0.69105005,11.004001,3.13995,1781203746587
2094275021,3,0.85695004,10.482,4.92105,1781203746597
2094275031,3,0.93600005,11.15505,4.2990003,1781203746607
2094275041,3,1.0000501,11.48295,4.51905,1781203746617
2094275051,3,0.99105006,11.15295,4.6579504,1781203746627
2094275061,3,0.89505005,11.281951,4.47405,1781203746638
2094275071,3,0.44205,10.39605,4.737,1781203746648
2094275082,3,0.076050006,10.2960005,4.629,1781203746658
2094275092,3,-0.79200006,11.857051,6.0540004,1781203746669
2094275102,3,-0.14295001,10.071,7.9879503,1781203746678
2094275112,3,0.59595,8.787001,6.91095,1781203746689
2094275122,3,1.06305,8.775001,7.7539506,1781203746699
2094275132,3,0.28005,5.35395,7.32495,1781203746709
2094275142,3,0.75795,5.35395,6.0870004,1781203746719
2094275152,3,0.77295005,9.451051,5.4739504,1781203746730
2094275162,3,0.91395,5.5669503,6.43695,1781203746738
2094275172,3,0.99105006,8.103001,5.77395,1781203746748
2094275182,3,0.69900006,6.8050504,4.52895,1781203746759
2094275192,3,-0.13395001,5.445,2.21595,1781203746769
2094275202,3,0.51405,7.1449504,0.92505,1781203746782
2094275212,3,0.56505,6.7860003,-0.108,1781203746788
2094275223,3,0.34395,6.8310003,-0.67305005,1781203746798
2094275233,3,0.31095,6.51,0.25695002,1781203746809
2094275243,3,0.35895002,6.2370005,1.28505,1781203746819
2094275253,3,0.39900002,6.3310504,2.39505,1781203746829
2094275263,3,0.82605004,6.1920004,3.6760502,1781203746839
2094275273,3,2.2020001,5.77995,7.0519505,1781203746849
2094275283,3,5.3149505,3.8479502,15.847951,1781203746859
2094275293,3,6.1860003,3.1630502,13.20495,1781203746881
2094275303,3,4.84095,5.6920505,3.9250503,1781203746881
2094275313,3,5.53305,9.439051,-1.8169501,1781203746891
2094275323,3,5.6350503,9.661051,2.08905,1781203746899
2094275333,3,5.406,9.28995,4.0069504,1781203746910
2094275343,3,5.202,8.72505,3.9160502,1781203746920
2094275354,3,4.9360504,8.67195,4.69605,1781203746930
2094275364,3,4.716,8.33205,3.8800502,1781203746940
2094275374,3,4.596,8.46195,3.9589503,1781203746950
2094275384,3,4.77405,8.701051,3.6760502,1781203746960
2094275394,3,5.00295,8.79705,3.3340502,1781203746970
2094275404,3,5.43405,7.8799505,4.39905,1781203746980
2094275414,3,6.9640503,6.5680504,4.17,1781203746990
2094275424,3,8.04405,5.50005,5.5410004,1781203747000
2094275434,3,7.0939503,7.83195,2.4120002,1781203747010
2094275444,3,6.1189504,9.360001,-0.26805001,1781203747020
2094275454,3,5.3959503,8.787001,0.92805004,1781203747031
2094275464,3,5.10405,7.9519506,3.3000002,1781203747040
2094275474,3,4.881,7.93305,3.8440502,1781203747050
2094275484,3,4.60395,8.241,4.6150503,1781203747060
2094275495,3,4.5529504,8.244,4.4929504,1781203747070
2094275505,3,4.23705,8.77095,4.215,1781203747080
2094275515,3,4.0339503,8.63595,3.66,1781203747090
2094275525,3,4.18695,8.34405,3.3240001,1781203747101
2094275535,3,4.254,8.29905,3.5449502,1781203747110
2094275545,3,3.9310503,8.052,3.42705,1781203747121
2094275555,3,3.28905,7.9300504,3.0630002,1781203747130
2094275565,3,3.0040503,7.6429505,3.5449502,1781203747141
2094275575,3,3.0589502,7.5610504,3.4680002,1781203747151
2094275585,3,3.4090502,7.69605,3.00795,1781203747162
2094275595,3,3.4690502,7.3720503,2.55795,1781203747172
2094275605,3,3.6169503,7.9090505,3.4510503,1781203747183
2094275615,3,4.02705,7.8199506,5.00505,1781203747191
2094275626,3,4.86705,7.69605,7.3489504,1781203747201
2094275636,3,4.8840003,7.4029503,6.36,1781203747212
2094275646,3,4.8240004,6.3570004,2.12295,1781203747222
2094275656,3,4.8120003,6.4630504,3.279,1781203747232
2094275666,3,4.9440002,6.9150004,3.6790502,1781203747242
2094275676,3,4.932,6.834,3.62805,1781203747252
2094275686,3,4.81395,6.36,2.6920502,1781203747262
2094275696,3,5.34105,8.17395,3.4150503,1781203747272
2094275706,3,4.8960004,6.8100004,3.9610503,1781203747283
2094275716,3,4.94805,6.714,3.13995,1781203747292
2094275726,3,4.9750504,6.8700004,3.2070003,1781203747302
2094275736,3,5.22795,6.405,3.17595,1781203747312
2094275746,3,6.3559504,5.95305,0.25305,1781203747322
2094275756,3,6.6769505,4.782,4.20795,1781203747333
2094275767,3,6.9139504,3.4840503,4.57905,1781203747342
2094275777,3,8.02995,2.9910002,3.6000001,1781203747354
2094275787,3,7.9120502,3.6349502,8.817,1781203747363
2094275797,3,7.79295,5.2369504,7.7230506,1781203747373
2094275807,3,12.1050005,3.525,1.7590501,1781203747383
2094275817,3,13.591051,4.11105,2.14905,1781203747393
2094275827,3,10.113001,7.1140504,3.3750002,1781203747403
2094275837,3,7.932,7.0420504,3.8539503,1781203747413
2094275847,3,7.1389503,6.0319505,3.48495,1781203747423
2094275857,3,6.438,6.8430004,4.428,1781203747434
2094275867,3,6.2530503,7.21395,5.43405,1781203747444
2094275877,3,5.81505,7.6399503,2.2350001,1781203747453
2094275887,3,4.9560003,7.0590005,2.5530002,1781203747464
2094275898,3,4.1850004,5.874,3.3750002,1781203747474
2094275908,3,5.511,4.059,4.33995,1781203747484
2094275918,3,5.406,3.4650002,6.2410502,1781203747494
2094275928,3,6.7990503,2.9260502,1.3249501,1781203747504
2094275938,3,6.9,3.18,3.8419502,1781203747514
2094275948,3,5.9350505,4.7389503,0.162,1781203747525
2094275958,3,4.656,7.2739506,0.99195004,1781203747534
2094275968,3,3.897,9.369,5.25705,1781203747544
2094275978,3,4.158,9.11295,3.561,1781203747554
2094275988,3,5.29995,7.056,5.49795,1781203747564
2094275998,3,6.6529503,4.72905,7.3969502,1781203747574
2094276008,3,9.90705,2.1030002,-8.346001,1781203747585
2094276018,3,12.033001,1.485,6.5160003,1781203747595
2094276028,3,11.037001,3.4699502,6.5400004,1781203747605
2094276039,3,11.824051,3.7159503,-6.405,1781203747615
2094276049,3,11.451,4.2910504,0.34605002,1781203747625
2094276059,3,11.367001,5.859,0.624,1781203747634
2094276069,3,11.298,6.3169503,2.21595,1781203747644
2094276079,3,10.24005,6.6250505,2.49795,1781203747654
2094276089,3,9.727051,6.5130005,3.7410002,1781203747664
2094276099,3,7.45305,6.6060004,4.66995,1781203747674
2094276109,3,7.5199504,5.74695,1.8900001,1781203747684
2094276119,3,7.63005,5.385,2.25405,1781203747694
2094276129,3,7.7689505,4.73595,2.73495,1781203747705
2094276139,3,7.5720005,3.8770502,1.9909501,1781203747714
2094276149,3,8.002951,3.6130502,2.874,1781203747725
2094276159,3,8.781,3.2760003,2.3760002,1781203747735
2094276170,3,9.294001,4.2840004,2.637,1781203747745
2094276180,3,9.291,5.4690003,3.07095,1781203747756
2094276190,3,8.608951,6.6520505,2.53905,1781203747766
2094276200,3,7.3069506,7.4440503,3.1330502,1781203747776
2094276210,3,6.3030005,7.66695,2.604,1781203747786
2094276220,3,5.7649503,7.4470506,2.49795,1781203747799
2094276230,3,6.0880504,6.261,2.5180502,1781203747806
2094276240,3,6.7939506,4.68795,2.3119502,1781203747815
2094276250,3,7.8640504,2.5530002,3.279,1781203747827
2094276260,3,8.961,0.40500003,2.36205,1781203747836
2094276270,3,9.0070505,0.24000001,2.1340501,1781203747847
2094276280,3,7.9270506,1.8180001,2.3119502,1781203747857
2094276290,3,7.6780505,2.87595,1.8520501,1781203747867
2094276300,3,7.6420503,4.3510504,1.4140501,1781203747877
2094276311,3,7.1850004,5.931,1.0830001,1781203747888
2094276321,3,6.3679504,7.2310505,1.107,1781203747900
2094276331,3,5.703,7.866,1.53795,1781203747907
2094276341,3,5.5210505,7.6450505,5.00295,1781203747917
2094276351,3,7.4620504,6.4170003,5.53695,1781203747927
2094276361,3,8.619,5.6290503,3.42,1781203747938
2094276371,3,8.784,4.88205,3.1999502,1781203747947
2094276381,3,8.65005,4.5040503,3.21195,1781203747957
2094276391,3,8.37705,3.7450502,3.15405,1781203747967
2094276401,3,8.118,3.38805,2.87895,1781203747978
2094276411,3,7.7539506,3.8460002,3.14505,1781203747987
2094276421,3,7.6180506,4.4950504,3.42,1781203747997
2094276431,3,7.491,5.4310503,4.2510004,1781203748008
2094276441,3,7.6540504,6.3760505,4.36305,1781203748018
2094276452,3,8.08695,6.714,2.5770001,1781203748028
2094276462,3,8.710051,5.9550004,0.66405004,1781203748039
2094276472,3,8.281051,5.505,-0.83595,1781203748048
2094276482,3,7.7089505,3.5749502,-2.7850502,1781203748058
2094276492,3,7.2949505,3.8479502,0.45900002,1781203748068
2094276502,3,7.49595,4.353,2.187,1781203748078
2094276512,3,7.8910503,3.9970503,2.02905,1781203748088
2094276522,3,8.097,3.82695,1.9570501,1781203748098
2094276532,3,8.166,4.3390503,2.7550502,1781203748108
2094276542,3,8.734051,5.1940503,1.93095,1781203748118
2094276552,3,8.973001,5.268,1.16205,1781203748129
2094276562,3,9.29895,4.96395,0.77205,1781203748139
2094276572,3,9.592951,3.6799502,0.08295,1781203748148
2094276583,3,8.134951,0.72795004,3.9450002,1781203748159
2094276593,3,8.724,4.0800004,2.6230502,1781203748169
2094276603,3,8.37195,4.4830503,4.17705,1781203748179
2094276613,3,9.01095,6.4459505,7.4689503,1781203748189
2094276623,3,9.564,8.103001,10.071,1781203748199
2094276633,3,10.563001,8.23695,6.18795,1781203748209
2094276643,3,10.504951,7.7700005,4.45695,1781203748220
2094276653,3,9.579,6.2110505,3.933,1781203748229
2094276663,3,9.01605,4.341,3.6139503,1781203748241
2094276673,3,8.37195,3.3739502,3.0900002,1781203748249
2094276683,3,7.6270504,4.5739503,3.5110502,1781203748260
2094276693,3,6.531,5.2200003,3.59295,1781203748269
2094276703,3,5.7379503,4.9090505,2.7139502,1781203748279
2094276713,3,6.74595,5.55495,3.7030501,1781203748290
2094276724,3,7.1370006,4.7200503,3.8200502,1781203748300
2094276734,3,6.8590503,3.321,4.3369503,1781203748310
2094276744,3,6.0690002,2.8189502,5.4910502,1781203748320
2094276754,3,4.728,5.21505,8.115001,1781203748330
2094276764,3,4.4290504,4.59,8.58195,1781203748340
2094276774,3,3.7459502,4.6330504,6.6240005,1781203748350
2094276784,3,2.5090501,7.2120004,5.64195,1781203748361
2094276794,3,1.52505,9.640051,3.5350502,1781203748370
2094276804,3,1.28505,9.316051,2.23005,1781203748381
2094276814,3,2.394,6.1800003,2.709,1781203748390
2094276824,3,2.8170002,4.46295,1.9549501,1781203748400
2094276834,3,3.3589501,4.557,2.9269502,1781203748411
2094276844,3,4.09095,4.092,2.6590502,1781203748420
2094276855,3,4.1730003,2.9890501,1.96905,1781203748431
2094276865,3,2.6910002,4.06605,3.933,1781203748441
2094276875,3,1.7209501,6.1009502,3.8509502,1781203748451
2094276885,3,1.0530001,8.14305,2.8620002,1781203748461
2094276895,3,1.59195,9.759001,3.9880502,1781203748471
2094276905,3,3.28395,11.397,3.59505,1781203748481
2094276915,3,3.6079502,12.05805,1.062,1781203748491
2094276925,3,3.2700002,11.36295,1.845,1781203748501
2094276935,3,2.7840002,10.82205,2.5510502,1781203748512
2094276945,3,1.05495,10.995001,4.0690503,1781203748521
2094276955,3,-0.531,10.842001,5.18505,1781203748531
2094276965,3,-0.63900006,9.793051,5.22795,1781203748542
2094276975,3,0.56700003,9.39795,3.73095,1781203748551
2094276985,3,1.06305,9.54405,2.3449502,1781203748562
2094276996,3,1.0819501,9.90495,1.1580001,1781203748572
2094277006,3,0.75795,10.69305,0.29805002,1781203748582
2094277016,3,0.55305004,10.873051,-1.60695,1781203748593
2094277026,3,1.36905,10.06095,1.5310501,1781203748602
2094277036,3,1.2540001,10.22595,4.1790004,1781203748612
2094277046,3,1.0530001,10.152,1.5600001,1781203748622
2094277056,3,0.9670501,10.123051,2.496,1781203748632
2094277066,3,0.52095,10.6380005,1.55295,1781203748642
2094277076,3,-0.54300004,11.60805,1.9980001,1781203748652
2094277086,3,0.46395,10.803,1.71105,1781203748663
2094277096,3,2.45805,10.33605,2.46495,1781203748673
2094277106,3,1.05795,12.754951,2.9200501,1781203748683
2094277116,3,-0.72300005,13.49205,2.5800002,1781203748693
2094277127,3,-1.6470001,12.606001,1.9720501,1781203748704
2094277137,3,-1.5409501,11.056951,2.8189502,1781203748714
2094277147,3,-0.73905003,9.868951,3.3360002,1781203748723
2094277157,3,-0.82800007,8.577001,3.528,1781203748733
2094277167,3,-0.20505,8.668051,1.8709501,1781203748743
2094277177,3,0.07095,9.19005,1.3609501,1781203748753
2094277187,3,0.20295002,9.7900505,1.3230001,1781203748764
2094277197,3,-0.162,10.324051,2.2759502,1781203748774
2094277207,3,-0.16905001,10.11795,3.28605,1781203748784
2094277217,3,-0.55005,9.90795,3.8200502,1781203748795
2094277227,3,-1.5340501,10.05405,4.038,1781203748803
2094277237,3,-1.917,10.209001,4.2130504,1781203748814
2094277247,3,-1.917,10.032001,3.8869503,1781203748825
2094277257,3,-1.36905,9.474,4.0470004,1781203748834
2094277268,3,-0.61200005,9.4150505,3.966,1781203748844
2094277278,3,-0.022950001,8.991,3.5370002,1781203748854
2094277288,3,0.08805001,8.809051,3.3630002,1781203748864
2094277298,3,0.507,8.823,3.4110003,1781203748874
2094277308,3,0.65805006,9.67605,3.6190503,1781203748884
2094277318,3,1.0819501,8.77305,3.2980502,1781203748895
2094277328,3,1.4620501,9.30195,3.9420002,1781203748904
2094277338,3,1.434,9.92895,4.35195,1781203748915
2094277348,3,0.47805002,10.462951,4.34205,1781203748924
2094277358,3,0.30795002,10.159051,4.0740004,1781203748934
2094277368,3,0.94305,10.06305,3.9469502,1781203748944
2094277378,3,1.16805,10.078051,4.05195,1781203748955
2094277388,3,1.5439501,8.706,3.5419502,1781203748965
2094277399,3,1.09395,8.99295,3.315,1781203748975
2094277409,3,1.31895,8.99295,2.7880502,1781203748985
2094277419,3,0.96000004,9.307051,2.39505,1781203748995
2094277429,3,0.82995003,10.297951,2.4150002,1781203749005
2094277439,3,1.1890501,10.309951,2.21595,1781203749015
2094277449,3,1.6110001,9.925051,4.2990003,1781203749026
2094277459,3,1.6489501,9.45495,3.55905,1781203749035
2094277469,3,1.07895,8.88105,3.8029501,1781203749045
2094277479,3,1.0390501,8.064,4.0140004,1781203749056
2094277489,3,1.5130501,7.0230002,3.9880502,1781203749068
2094277499,3,1.7950501,7.3099504,3.9280503,1781203749076
2094277509,3,1.5679501,8.328,3.798,1781203749085
2094277519,3,1.4070001,9.1060505,3.58995,1781203749096
2094277529,3,0.615,9.525001,3.6049502,1781203749106
2094277540,3,0.22500001,9.40005,4.7779503,1781203749116
2094277550,3,0.363,8.644051,4.9999504,1781203749126
2094277560,3,0.924,7.41795,4.9840503,1781203749136
2094277570,3,2.45805,4.7389503,3.6400502,1781203749146
2094277580,3,1.5700501,5.61495,1.7010001,1781203749156
2094277590,3,0.43005002,5.6530504,-0.558,1781203749166
2094277600,3,-0.19095,5.4859505,-1.7719501,1781203749175
2094277610,3,-0.21495001,5.70405,-2.6100001,1781203749186
2094277620,3,-0.27705002,6.7309504,-3.9120002,1781203749196
2094277630,3,-0.87795,8.14095,-4.137,1781203749206
2094277640,3,-6.9880505,13.951951,8.200951,1781203749218
2094277650,3,1.9960501,8.38305,-10.83195,1781203749226
2094277660,3,1.3590001,11.31795,-0.16305001,1781203749236
2094277671,3,-1.55295,19.137001,5.13,1781203749248
2094277681,3,-2.47005,17.31495,2.283,1781203749257
2094277691,3,-2.844,13.32705,0.79095006,1781203749269
2094277701,3,-3.52905,12.276001,1.7179501,1781203749279
2094277711,3,-3.6990001,10.453951,2.9580002,1781203749288
2094277721,3,-4.17705,9.10305,2.48895,1781203749297
2094277731,3,-4.0960503,7.8510003,3.0370502,1781203749308
2094277741,3,-3.6649501,7.1520004,3.9090002,1781203749317
2094277751,3,-3.0979502,6.7909503,3.7789502,1781203749327
2094277761,3,-2.1780002,6.6250505,3.3940501,1781203749337
2094277771,3,-1.0530001,6.30705,3.7720501,1781203749353
2094277781,3,-0.094950005,6.63,2.6250002,1781203749357
2094277791,3,0.37500003,6.9270005,1.67505,1781203749368
2094277801,3,0.86100006,7.4149504,1.5340501,1781203749377
2094277812,3,1.1029501,7.9570503,1.7869501,1781203749387
2094277822,3,1.6369501,8.227051,1.8739501,1781203749397
2094277832,3,2.77905,7.8030005,0.79905003,1781203749407
2094277842,3,11.161051,9.46695,-2.0380502,1781203749417
2094277852,3,1.6369501,15.871951,-1.45095,1781203749427
2094277862,3,2.11605,10.971001,-0.35895002,1781203749439
2094277872,3,1.5169501,10.023001,0.010950001,1781203749448
2094277882,3,2.26395,8.227051,0.48495004,1781203749458
2094277892,3,1.695,7.54995,15.99495,1781203749468
2094277902,3,2.9160001,11.932951,-0.16995001,1781203749478
2094277912,3,2.43,13.746,0.80295,1781203749489
2094277922,3,2.38395,14.224951,-1.06605,1781203749499
2094277932,3,1.8790501,15.58005,0.20700002,1781203749509
2094277943,3,1.695,14.17695,-0.097950004,1781203749519
2094277953,3,1.5700501,13.02,0.23295002,1781203749529
2094277963,3,0.85695004,13.389001,0.39900002,1781203749539
2094277973,3,0.33,13.66905,-0.02205,1781203749549
2094277983,3,0.65295005,13.209001,0.18300001,1781203749559
2094277993,3,0.8880001,12.682951,0.052050002,1781203749569
2094278003,3,0.65805006,12.229951,-0.076950006,1781203749579
2094278013,3,0.58605003,11.12205,-0.71805006,1781203749589
2094278023,3,0.83295006,10.51095,-0.97200006,1781203749599
2094278033,3,0.73200005,10.144951,0.28905,1781203749609
2094278043,3,0.48600003,9.826051,0.62100005,1781203749619
2094278053,3,0.53595,9.3810005,0.45600003,1781203749629
2094278063,3,0.51705,8.878051,0.73395,1781203749640
2094278073,3,0.37095,8.565001,1.6890001,1781203749649
2094278084,3,-0.021000002,8.47095,1.27695,1781203749660
2094278094,3,-0.07395,8.433001,1.74705,1781203749670
2094278104,3,0.20805001,8.500051,2.1730502,1781203749680
2094278114,3,0.42795002,8.364,2.436,1781203749690
2094278124,3,0.588,8.51895,2.63205,1781203749702
2094278134,3,0.80595005,8.46195,2.901,1781203749711
2094278144,3,0.71805006,9.43395,3.288,1781203749721
2094278154,3,0.84195006,10.01805,2.8860002,1781203749730
2094278164,3,0.95205003,10.03005,2.6160002,1781203749741
2094278174,3,0.48600003,10.684051,2.15805,1781203749750
2094278184,3,0.35895002,10.630951,2.118,1781203749761
2094278194,3,0.42600003,10.104,2.36205,1781203749770
2094278204,3,-0.045,10.68105,2.0770502,1781203749780
2094278215,3,-0.282,10.615951,2.4720001,1781203749791
2094278225,3,-0.43995002,10.465951,2.94105,1781203749801
2094278235,3,-0.52395004,10.771951,3.2239501,1781203749812
2094278245,3,-0.37305,10.48995,3.7120502,1781203749821
2094278255,3,-0.47805002,10.16205,4.24095,1781203749832
2094278265,3,-0.55995005,9.831,4.12395,1781203749843
2094278275,3,-0.55695003,9.09405,4.22895,1781203749852
2094278285,3,-0.91200006,8.854051,4.56705,1781203749861
2094278295,3,-0.85200006,8.44305,4.47795,1781203749872
2094278305,3,-0.68205005,8.052,3.7360501,1781203749882
2094278315,3,-0.78195006,7.6399503,4.524,1781203749891
2094278325,3,-0.675,8.58405,3.6670501,1781203749902
2094278335,3,-0.69900006,8.826,4.60995,1781203749913
2094278345,3,-1.20105,7.9759502,4.00395,1781203749922
2094278356,3,-0.57900006,8.268001,0.29805002,1781203749932
2094278366,3,-0.48600003,8.380051,9.979951,1781203749942
2094278376,3,-0.56700003,7.9570503,5.49795,1781203749952
2094278386,3,-0.54105,8.95995,4.32795,1781203749962
2094278396,3,-1.5700501,7.5019503,3.8029501,1781203749972
2094278406,3,0.354,8.45505,6.35295,1781203749982
2094278416,3,0.711,8.055,4.95195,1781203749992
2094278426,3,0.112050004,9.37395,4.1070004,1781203750003
2094278436,3,-0.42795002,9.99195,4.0279503,1781203750012
2094278446,3,0.26295,8.644051,4.8349504,1781203750022
2094278456,3,-0.0139500005,8.224951,4.6459503,1781203750032
2094278466,3,-0.25995,8.241,5.091,1781203750043
2094278476,3,-0.351,9.12495,5.27295,1781203750053
2094278486,3,-0.49305,9.462001,4.8450003,1781203750065
2094278497,3,-0.363,9.051001,4.74405,1781203750073
2094278507,3,-0.20295002,9.07005,4.596,1781203750083
2094278517,3,-0.11895001,8.80395,4.431,1781203750093
2094278527,3,-0.105000004,8.337001,4.67205,1781203750104
2094278537,3,-0.26505002,7.9900503,4.72695,1781203750113
2094278547,3,-0.08295,8.10705,4.419,1781203750123
2094278557,3,-0.22005,8.598001,4.8499503,1781203750133
2094278567,3,-0.44205,9.10305,4.7850003,1781203750143
2094278577,3,-0.47400004,8.991,4.7920504,1781203750153
2094278587,3,-0.17895001,8.401951,4.7710505,1781203750163
2094278597,3,-0.04695,8.16195,4.893,1781203750174
2094278607,3,-0.18105,8.28195,5.0869503,1781203750184
2094278617,3,-0.57405,8.613001,5.0890503,1781203750194
2094278628,3,-0.62895006,8.578951,5.1130505,1781203750204
2094278638,3,-0.61005,8.713051,5.1780005,1781203750216
2094278648,3,-0.57195,8.710951,5.151,1781203750225
2094278658,3,-0.51405,8.634001,5.06295,1781203750234
2094278668,3,-0.51405,8.514,5.00295,1781203750245
2094278678,3,-0.33495003,8.48295,4.97895,1781203750254
2094278688,3,-0.38505003,8.215051,5.0080504,1781203750264
2094278698,3,-0.58395004,8.196,5.0149503,1781203750274
2094278708,3,-0.52095,8.3539505,4.9240503,1781203750286
2094278718,3,-0.61200005,9.007951,4.842,1781203750294
2094278728,3,-0.84900004,9.309,4.842,1781203750304
2094278738,3,-1.041,9.357,4.8640504,1781203750314
2094278748,3,-1.149,9.08895,4.9120502,1781203750325
2094278758,3,-1.1149501,8.85,4.9879503,1781203750335
2094278769,3,-1.074,8.79195,5.1460505,1781203750345
2094278779,3,-1.1560501,8.845051,5.1010504,1781203750355
2094278789,3,-1.39995,9.096001,5.0989504,1781203750365
2094278799,3,-1.6609501,9.118051,5.0890503,1781203750375
2094278809,3,-1.7260501,9.051001,5.1220503,1781203750385
2094278819,3,-1.59195,8.967,5.05305,1781203750395
2094278829,3,-1.28805,8.847,4.75395,1781203750405
2094278839,3,-1.0339501,9.199051,4.629,1781203750416
2094278849,3,-0.837,9.30405,4.656,1781203750425
2094278859,3,-0.74595004,9.19005,4.6320004,1781203750436
2094278869,3,-0.78495,9.154051,4.7299504,1781203750446
2094278879,3,-0.87795,9.213,4.8780003,1781203750456
2094278889,3,-0.91905004,9.108001,5.1990004,1781203750466
2094278900,3,-0.87600005,8.95695,5.24205,1781203750475
2094278910,3,-0.83505005,9.099,5.2759504,1781203750486
2094278920,3,-0.69105005,9.333,5.1439505,1781203750496
2094278930,3,-0.39900002,9.30405,4.9549503,1781203750507
2094278940,3,-0.124050006,9.148951,4.83795,1781203750516
2094278950,3,0.021000002,9.007951,5.14905,1781203750526
2094278960,3,0.094950005,8.778001,5.031,1781203750536
2094278970,3,0.19305001,8.887951,5.328,1781203750546
2094278980,3,0.14805001,9.13395,5.2849503,1781203750556
2094278990,3,0.08805001,9.71595,4.9879503,1781203750566
2094279000,3,0.045,10.212001,4.584,1781203750576
2094279010,3,-0.14805001,10.240951,4.43505,1781203750587
2094279020,3,-0.016050002,9.8220005,4.42605,1781203750597
2094279030,3,0.31995,9.13395,4.59795,1781203750607
2094279041,3,0.30105,8.043,4.7059503,1781203750617
2094279051,3,-0.07395,7.72905,4.3369503,1781203750627
2094279061,3,-0.27195,7.8679504,4.38495,1781203750637
2094279071,3,-0.23895001,8.541,5.1010504,1781203750647
2094279081,3,0.09,9.015,4.27005,1781203750657
2094279091,3,-11.908051,11.377951,-1.8529501,1781203750667
2094279101,3,-1.7520001,7.5810003,1.7730001,1781203750677
2094279111,3,-0.46905002,7.5060005,5.88105,1781203750687
2094279121,3,-1.43805,7.5400505,4.617,1781203750697
2094279131,3,-1.848,6.9649506,5.49405,1781203750708
2094279141,3,-1.539,6.1729503,5.151,1781203750718
2094279151,3,-1.4650501,5.84205,5.7979503,1781203750728
2094279161,3,-1.5370501,6.8500504,5.2369504,1781203750738
2094279172,3,-1.4620501,7.59,5.4529505,1781203750748
2094279182,3,-1.197,7.9090505,5.0790005,1781203750758
2094279192,3,-1.1200501,8.304001,4.60305,1781203750768
2094279202,3,-1.2060001,8.502001,4.4830503,1781203750778
2094279212,3,-1.11,8.56005,4.5690002,1781203750788
2094279222,3,-0.85200006,8.20605,4.4089503,1781203750798
2094279232,3,-0.69900006,8.380051,4.36305,1781203750808
2094279242,3,-0.73695004,9.06705,4.4620504,1781203750818
2094279252,3,-0.40695003,9.160951,4.00395,1781203750829
2094279262,3,-0.31095,9.508051,3.7189503,1781203750841
2094279272,3,-0.33195,10.650001,3.1930501,1781203750849
2094279282,3,0.03795,11.00205,2.8600502,1781203750858
2094279292,3,0.48795003,10.786051,2.3809502,1781203750869
2094279302,3,0.70305,10.578,2.1780002,1781203750880
2094279313,3,0.55995005,10.453951,2.2450502,1781203750889
2094279323,3,0.15495001,10.159051,3.051,1781203750899
2094279333,3,-0.23205002,9.297001,3.45795,1781203750909
2094279343,3,-0.411,8.27505,3.528,1781203750919
2094279353,3,-0.51900005,7.8490505,3.8869503,1781203750929
2094279363,3,-0.63195,8.229,3.2980502,1781203750939
2094279373,3,-0.62205005,8.2890005,2.7450001,1781203750949
2094279383,3,-0.66495,8.34195,2.29305,1781203750959
2094279393,3,-0.624,8.64105,2.4430501,1781203750969
2094279403,3,-0.68700004,8.890051,2.874,1781203750980
2094279413,3,-0.78000003,8.6320505,2.4390001,1781203750990
2094279423,3,-0.66705,8.25105,1.5169501,1781203751000
2094279433,3,-0.37995002,8.46405,1.72695,1781203751010
2094279444,3,-0.093,9.172951,2.55795,1781203751020
2094279454,3,-0.16695,10.21695,3.31995,1781203751030
2094279464,3,0.00705,11.232,2.3760002,1781203751040
2094279474,3,0.12195001,12.297001,2.0650501,1781203751050
2094279484,3,0.44505003,13.10595,2.39295,1781203751060
2094279494,3,0.19800001,14.622001,2.3689501,1781203751070
2094279504,3,0.39705002,13.42695,1.39005,1781203751080
2094279514,3,0.58605003,13.449,0.37995002,1781203751090
2094279524,3,1.00995,13.068001,0.09705,1781203751100
2094279534,3,1.0669501,12.84105,0.01305,1781203751110
2094279544,3,1.07895,11.79195,0.71505004,1781203751120
2094279554,3,0.76995003,10.61205,1.50705,1781203751131
2094279564,3,0.30600002,9.678,1.0830001,1781203751141
2094279574,3,-0.23700002,9.283051,1.28505,1781203751151
2094279585,3,-0.45405003,8.971951,0.90900004,1781203751161
2094279595,3,-0.69105005,8.874001,1.107,1781203751171
2094279605,3,-0.66300005,8.644051,1.12905,1781203751181
2094279615,3,-0.67200005,8.89995,1.4070001,1781203751191
2094279625,3,-0.60300004,9.142051,2.4510002,1781203751201
2094279635,3,-0.78000003,9.20895,2.74005,1781203751211
2094279645,3,-0.81795,9.25905,2.9629502,1781203751221
2094279655,3,-0.81600004,9.43395,2.0700002,1781203751231
2094279665,3,-0.78000003,9.70005,1.35195,1781203751240
2094279675,3,-0.68895006,10.441951,0.609,1781203751251
2094279685,3,-0.50205004,11.529,0.094950005,1781203751261
2094279695,3,-0.08805001,11.91195,0.39600003,1781203751271
2094279705,3,0.64395005,11.3539505,-0.88395005,1781203751281
2094279716,3,0.64605004,11.0140505,-0.29700002,1781203751293
2094279726,3,0.51195,10.37895,-0.42195,1781203751301
2094279736,3,0.19095,10.14,-1.2859501,1781203751312
2094279746,3,-0.22500001,10.17405,-1.659,1781203751322
2094279756,3,-0.49305,10.39395,-1.2430501,1781203751332
2094279766,3,-0.363,10.37895,-1.52295,1781203751342
2094279776,3,-0.675,10.61205,-0.60300004,1781203751352
2094279786,3,-1.02405,11.284051,0.0,1781203751362
2094279796,3,-0.76095,10.734,0.43005002,1781203751372
2094279806,3,-0.73005,11.6959505,1.383,1781203751383
2094279816,3,0.57195,8.112,0.69105005,1781203751392
2094279826,3,-0.66,7.7220006,0.42495003,1781203751403
2094279836,3,-1.0890001,7.4539504,1.608,1781203751413
2094279846,3,-1.8649501,7.21005,1.368,1781203751423
2094279857,3,-1.8070501,5.9479504,2.26605,1781203751433
2094279867,3,0.21000001,4.4560504,2.5729501,1781203751443
2094279877,3,0.34905002,5.2579503,0.89205,1781203751453
2094279887,3,-0.28005,6.405,-0.20400001,1781203751464
2094279897,3,0.32505003,6.642,0.043950003,1781203751474
2094279907,3,-0.82095003,12.59895,-0.75000006,1781203751484
2094279917,3,-1.1920501,20.646002,1.2250501,1781203751493
2094279927,3,2.9970002,11.90505,1.7389501,1781203751503
2094279937,3,1.3429501,13.545001,1.27995,1781203751513
2094279947,3,-0.097950004,14.293951,-0.9580501,1781203751524
2094279957,3,-0.39705002,13.533001,-0.67800003,1781203751533
2094279967,3,-0.21000001,11.835001,0.58305,1781203751544
2094279977,3,-1.7190001,11.062051,4.191,1781203751554
2094279988,3,-2.25495,10.606951,1.77495,1781203751564
2094279998,3,-1.218,10.86495,-3.45,1781203751574
2094280008,3,-1.266,10.621051,-3.9120002,1781203751584
2094280018,3,-1.17495,7.899,3.1189501,1781203751594
2094280028,3,-0.31305,8.301001,-0.73995006,1781203751604
2094280038,3,0.34395,8.095051,-0.13695,1781203751614
2094280048,3,0.56700003,7.827,1.2270001,1781203751624
2094280058,3,0.52095,9.21105,0.26700002,1781203751634
2094280068,3,0.873,10.095,-0.41700003,1781203751644
2094280078,3,1.16505,10.51605,-0.48405004,1781203751654
2094280088,3,1.21305,11.068951,-1.0540501,1781203751664
2094280098,3,1.24395,10.734,-1.64295,1781203751675
2094280108,3,0.98805004,10.276951,-1.54005,1781203751685
2094280118,3,0.837,9.7879505,-1.29795,1781203751694
2094280129,3,0.88995004,9.25395,-1.23105,1781203751707
2094280139,3,0.91605,8.884951,-1.7190001,1781203751716
2094280149,3,0.84705,8.862,-1.4629501,1781203751725
2094280159,3,0.75105006,9.24495,-1.401,1781203751736
2094280169,3,0.55995005,9.71895,-1.5109501,1781203751746
2094280179,3,0.56700003,9.40995,-1.2550501,1781203751755
2094280189,3,0.22905001,9.06495,-1.00995,1781203751766
2094280199,3,-0.27705002,8.658,-0.87195003,1781203751777
2094280209,3,-0.31605002,8.217,-1.2790501,1781203751786
2094280219,3,0.38505003,6.2040005,-2.7940502,1781203751796
2094280229,3,0.59595,2.8879502,-5.3490005,1781203751806
2094280239,3,0.025950002,6.54405,1.9600501,1781203751817
2094280249,3,-0.23700002,7.1520004,0.67200005,1781203751826
2094280260,3,-0.22500001,6.1470003,-2.63895,1781203751836
2094280270,3,-0.13395001,6.1579504,-3.24705,1781203751847
2094280280,3,-0.19800001,6.1660504,-2.83995,1781203751857
2094280290,3,-0.29595003,7.5589504,-2.8879502,1781203751867
2094280300,3,-5.7120004,27.802052,-2.8279502,1781203751876
2094280310,3,1.59405,29.236052,-3.867,1781203751887
2094280320,3,8.455951,-4.06605,-1.8220501,1781203751897
2094280330,3,1.7260501,9.193951,-6.70905,1781203751907
2094280340,3,-1.5490501,15.11295,0.44895002,1781203751916
2094280350,3,-0.15495001,7.9489503,3.9160502,1781203751926
2094280360,3,-1.24395,9.3810005,1.67505,1781203751937
2094280370,3,-1.3759501,10.108951,-1.7479501,1781203751947
2094280380,3,-0.15795001,7.485,-0.46500003,1781203751958
2094280390,3,1.371,6.76695,3.0370502,1781203751967
2094280401,3,2.0700002,3.0960002,5.26905,1781203751977
2094280411,3,0.52095,2.9860501,2.53395,1781203751987
2094280421,3,0.63195,3.52005,0.76995003,1781203751997
2094280431,3,0.84900004,4.74405,1.62195,1781203752007
2094280441,3,1.0170001,6.57705,1.641,1781203752017
2094280451,3,0.92595005,5.6250005,0.18795002,1781203752027
2094280461,3,1.7230501,1.473,-1.1689501,1781203752037
2094280471,3,1.05495,5.09805,2.1340501,1781203752048
2094280481,3,31.528952,60.706055,-9.816001,1781203752058
2094280491,3,6.189,15.967951,0.19800001,1781203752068
2094280501,3,-2.3070002,1.42305,2.30205,1781203752078
2094280511,3,-4.419,1.3249501,7.5070505,1781203752088
2094280521,3,-2.2069502,1.07805,1.8520501,1781203752098
2094280532,3,-0.9480001,0.83895004,-2.19105,1781203752109
2094280542,3,-0.41805002,0.633,-3.45705,1781203752118
2094280552,3,0.0019500001,0.91995007,-3.6850502,1781203752128
2094280562,3,3.627,7.5139503,-7.1710505,1781203752138
2094280572,3,23.350052,48.307953,-0.44295,1781203752148
2094280582,3,3.45705,8.95695,-1.5319501,1781203752159
2094280592,3,-0.064050004,1.2019501,-0.18705001,1781203752168
2094280602,3,-0.53295004,0.120000005,0.66405004,1781203752178
2094280612,3,-0.507,0.37905002,0.90405005,1781203752188
2094280622,3,0.68895006,3.5749502,0.54195005,1781203752198
2094280632,3,4.7689505,12.867001,-0.97200006,1781203752209
2094280642,3,7.8120003,20.57595,-2.9950502,1781203752218
2094280652,3,2.8290002,10.248,-1.0510501,1781203752229
2094280662,3,-0.07395,3.9100502,-1.3290001,1781203752239
2094280673,3,-1.146,4.473,-1.5990001,1781203752248
2094280683,3,-7.35195,26.703001,-2.1070502,1781203752260
2094280693,3,-13.4740505,34.057953,-5.3749504,1781203752269
2094280703,3,-4.86705,9.22305,-5.50005,1781203752279
2094280713,3,-2.25195,1.092,-5.4900002,1781203752289
2094280723,3,-2.844,2.4090002,-5.0209503,1781203752300
2094280733,3,-3.8089502,4.7959504,-3.3930001,1781203752309
2094280743,3,-4.788,8.188951,-1.4320501,1781203752319
2094280753,3,-6.7770004,15.931951,0.78705,1781203752329
2094280763,3,-6.21495,17.43795,2.0340002,1781203752340
2094280773,3,-3.2340002,12.369,1.6650001,1781203752349
2094280783,3,-0.73200005,7.0969505,-1.7050501,1781203752359
2094280793,3,0.23700002,5.9329505,-3.1720502,1781203752369
2094280803,3,0.92100006,7.93305,-3.0930002,1781203752380
2094280814,3,1.74705,11.091001,-2.73195,1781203752390
2094280824,3,2.0970001,11.224951,-2.8230002,1781203752400
2094280834,3,2.0059502,8.257951,-3.7519503,1781203752410
2094280844,3,1.6660501,6.5820003,-3.83295,1781203752420
2094280854,3,1.55805,7.1740503,-3.55605,1781203752430
2094280864,3,1.47195,9.3,-3.52005,1781203752440
2094280874,3,0.89295006,9.91005,-4.46805,1781203752450
2094280884,3,-0.08295,9.405001,-5.2120504,1781203752460
2094280894,3,-0.864,9.34305,-4.7860503,1781203752470
2094280904,3,-1.40205,9.781051,-4.31895,1781203752480
2094280914,3,-1.6660501,10.147051,-4.5540004,1781203752491
2094280924,3,-1.66305,9.96,-4.7449503,1781203752500
2094280934,3,-1.47405,9.40005,-4.59495,1781203752511
2094280945,3,-1.0819501,9.331051,-4.458,1781203752521
2094280955,3,-0.63405,9.691951,-4.4749503,1781203752531
2094280965,3,-0.31305,9.489,-4.374,1781203752541
2094280975,3,-0.043050002,8.835,-4.6069503,1781203752551
2094280985,3,-0.028050002,8.857051,-4.73595,1781203752561
2094280995,3,-0.021000002,8.967,-4.4440503,1781203752571
2094281005,3,-0.13800001,9.03195,-3.8719501,1781203752581
2094281015,3,-0.31305,9.20895,-3.31395,1781203752591
2094281025,3,-0.26295,9.228001,-3.081,1781203752601
2094281035,3,-0.23700002,9.14595,-3.4999502,1781203752611
2094281045,3,-0.22005,9.154051,-4.49205,1781203752622
2094281055,3,-0.19605,9.24705,-5.6190004,1781203752632
2094281065,3,-0.24105,9.084001,-6.1009502,1781203752642
2094281075,3,-0.23205002,8.698951,-6.1600504,1781203752651
2094281086,3,-0.10005,8.62905,-5.79405,1781203752662
2094281096,3,0.022950001,8.7630005,-5.22405,1781203752672
2094281106,3,0.081,9.0,-4.59495,1781203752682
2094281116,3,0.23205002,8.976001,-4.0800004,1781203752693
2094281126,3,0.016050002,8.883,-4.14405,1781203752702
2094281136,3,-0.21000001,8.94495,-4.125,1781203752713
2094281146,3,-0.25305,9.099,-4.2070503,1781203752722
2094281156,3,-0.13395001,8.99295,-4.1800504,1781203752733
2094281166,3,-0.022950001,8.93295,-4.06995,1781203752742
2094281176,3,-0.07395,9.15795,-4.1470504,1781203752753
2094281186,3,-0.14805001,9.13395,-4.1280003,1781203752763
2094281196,3,-0.25095,8.955001,-4.12995,1781203752773
2094281206,3,-0.57600003,9.06495,-4.3170004,1781203752783
2094281217,3,-0.53805,9.08205,-4.2000003,1781203752793
2094281227,3,-0.33195,9.148951,-4.224,1781203752803
2094281237,3,-0.20295002,9.15795,-4.31895,1781203752813
2094281247,3,-0.13095,9.003,-4.3219504,1781203752823
2094281257,3,-0.094950005,8.920951,-4.36005,1781203752835
2094281267,3,-0.15,9.052951,-4.43205,1781203752845
2094281277,3,-0.23700002,9.10305,-4.683,1781203752855
2094281287,3,-0.37095,9.05805,-4.7860503,1781203752863
2094281297,3,-0.52605003,9.123,-4.7530503,1781203752874
2094281307,3,-0.51195,9.216001,-4.7449503,1781203752884
2094281317,3,-0.49695003,9.09405,-4.6420503,1781203752894
2094281327,3,-0.46395,9.075001,-4.8910503,1781203752905
2094281337,3,-0.81405,9.196951,-4.54395,1781203752914
2094281347,3,-0.615,9.13395,-4.65705,1781203752929
2094281358,3,-0.555,9.154051,-4.3099504,1781203752936
2094281368,3,-0.43005002,9.25905,-4.09905,1781203752945
2094281378,3,-0.35895002,9.130051,-4.362,1781203752954
2094281388,3,-0.45000002,9.10305,-3.417,1781203752964
2094281398,3,-0.31995,9.213,-2.7850502,1781203752974
2094281408,3,-0.19305001,9.160951,-3.831,1781203752984
2094281418,3,-0.09,9.249001,-5.1210003,1781203752995
2094281428,3,0.13395001,9.28995,-5.55,1781203753004
2094281438,3,0.35895002,9.048,-5.94,1781203753014
2094281448,3,0.35895002,9.06495,-6.3019505,1781203753025
2094281458,3,0.40395,9.27105,-6.7710004,1781203753035
2094281468,3,0.28395,9.394951,-6.9310503,1781203753045
2094281478,3,0.162,9.38805,-6.46005,1781203753055
2094281489,3,0.00405,9.484051,-5.7730503,1781203753065
2094281499,3,-0.42600003,9.007951,-4.75995,1781203753075
2094281509,3,-0.64095,9.130051,-3.8359501,1781203753085
2094281519,3,-0.768,9.460051,-3.6439502,1781203753096
2094281529,3,-0.96195006,9.673051,-2.94705,1781203753105
2094281539,3,-1.09095,9.786,-2.35395,1781203753116
2094281549,3,-1.2229501,9.781051,-1.9470001,1781203753125
2094281559,3,-1.27995,9.771001,-1.0339501,1781203753135
2094281569,3,-1.28505,9.91695,-0.24900001,1781203753145
2094281579,3,-1.338,10.177951,0.147,1781203753159
2094281589,3,-1.386,9.996,0.50205004,1781203753165
2094281599,3,-1.3470001,10.00605,0.717,1781203753176
2094281609,3,-1.302,10.00605,0.96900004,1781203753186
2094281619,3,-1.3260001,9.988951,1.2060001,1781203753196
2094281630,3,-1.3549501,9.880951,1.5460501,1781203753207
2094281640,3,-1.4670001,9.68295,2.3790002,1781203753217
2094281650,3,-1.6609501,9.766951,3.0589502,1781203753227
2094281660,3,-2.0269501,9.76395,3.7240503,1781203753236
2094281670,3,-2.3119502,9.508051,4.03305,1781203753246
2094281680,3,-2.3430002,8.73495,3.5400002,1781203753257
2094281690,3,-2.08995,7.9879503,2.83095,1781203753268
2094281700,3,-1.6969501,7.38705,2.74005,1781203753276
2094281710,3,-1.23195,7.3009505,2.77605,1781203753290
2094281720,3,-0.87105006,7.5810003,2.48895,1781203753296
2094281730,3,-0.74595004,8.241,1.8930001,1781203753306
2094281740,3,-0.88305,9.92895,1.7179501,1781203753317
2094281750,3,-1.4260501,12.418951,2.52195,1781203753327
2094281761,3,-1.7209501,13.992001,1.8400501,1781203753337
2094281771,3,-1.06005,12.441001,-1.30005,1781203753347
2094281781,3,-1.89795,11.878051,-4.9900503,1781203753357
2094281791,3,-2.2480502,12.036,-3.4410002,1781203753367
2094281801,3,-1.4100001,12.843,3.76305,1781203753377
2094281811,3,-1.0699501,10.032001,1.452,1781203753387
2094281821,3,-0.91395,9.04605,-5.14995,1781203753397
2094281831,3,-0.30795002,10.257001,-3.6370502,1781203753407
2094281841,3,-0.06705,10.498951,-2.43495,1781203753417
2094281851,3,-0.058950003,9.64395,-0.321,1781203753427
2094281861,3,-0.16905001,9.349951,-1.1590501,1781203753437
2094281871,3,0.081,9.196951,-2.811,1781203753447
2094281881,3,0.049950004,9.04605,-1.9660501,1781203753457
2094281891,3,0.15,10.365001,-0.78300005,1781203753467
2094281902,3,0.36795002,11.64795,-0.25605002,1781203753478
2094281912,3,0.61695004,11.22,0.07305,1781203753488
2094281922,3,0.73200005,9.766951,0.20505,1781203753498
2094281932,3,0.79395,9.015,0.68595004,1781203753508
2094281942,3,1.06305,9.10305,1.1359501,1781203753519
2094281952,3,1.3590001,9.68505,1.35195,1781203753528
2094281962,3,1.503,9.59895,1.3969501,1781203753538
2094281972,3,1.5490501,8.94495,1.845,1781203753548
2094281982,3,1.491,8.48805,3.5760002,1781203753558
2094281992,3,1.30005,9.043051,3.8920503,1781203753568
2094282002,3,1.10595,10.48005,1.4670001,1781203753578
2094282012,3,0.61995006,9.85995,0.32895002,1781203753588
2094282022,3,0.105000004,9.0390005,0.59295005,1781203753599
2094282033,3,-0.21000001,9.55605,0.95400006,1781203753609
2094282043,3,-0.50895,10.719001,1.299,1781203753619
2094282053,3,-0.873,11.229,0.72,1781203753629
2094282063,3,-1.1850001,10.438951,0.657,1781203753639
2094282073,3,-1.4809501,10.008,0.76305,1781203753649
2094282083,3,-1.7299501,10.569,0.47805002,1781203753659
2094282093,3,-1.8210001,10.9800005,0.24300002,1781203753669
2094282103,3,-1.7569501,10.633051,0.135,1781203753679
2094282113,3,-1.4310001,10.297951,-0.18195,1781203753690
2094282123,3,-1.1560501,10.486951,-0.41700003,1781203753699
2094282133,3,-0.735,10.498951,-0.48900002,1781203753709
2094282143,3,-0.44505003,10.236,-0.50295,1781203753726
2094282153,3,-0.07095,10.008,-1.01505,1781203753730
2094282163,3,0.28695002,9.964951,-1.1329501,1781203753741
2094282174,3,0.51705,9.76395,-0.85200006,1781203753749
2094282184,3,0.64395005,9.64395,-0.54405004,1781203753759
2094282194,3,0.57705003,9.774,-0.55605,1781203753769
2094282204,3,0.25605002,9.975,-0.57195,1781203753780
2094282214,3,0.10695001,9.9199505,-0.54405004,1781203753789
2094282224,3,-0.13800001,9.867001,-0.582,1781203753799
2094282234,3,-0.36105,9.99405,-0.354,1781203753810
2094282244,3,-0.50895,10.107,-0.16800001,1781203753821
2094282254,3,-0.54795,10.17105,-0.02205,1781203753832
2094282264,3,-0.55995005,10.18095,0.147,1781203753841
2094282274,3,-0.507,10.128,0.15900001,1781203753850
2094282284,3,-0.40905002,10.07505,0.15195,1781203753860
2094282294,3,-0.31095,9.982051,0.14295001,1781203753871
2094282305,3,-0.26295,9.943951,0.13800001,1781203753881
2094282315,3,-0.22500001,10.008,0.12795001,1781203753891
2094282325,3,-0.24795002,10.111051,0.09195001,1781203753901
2094282335,3,-0.31305,10.107,0.109050006,1781203753911
2094282345,3,-0.29205,10.096951,0.09705,1781203753921
2094282355,3,-0.246,10.165951,0.042000003,1781203753931
2094282365,3,-0.22005,10.189951,0.0,1781203753941
2094282375,3,-0.23205002,10.176001,-0.04605,1781203753951
2094282385,3,-0.24795002,10.18305,-0.055050004,1781203753961
2094282395,3,-0.24405001,10.19505,-0.072000004,1781203753971
2094282405,3,-0.25305,10.18095,-0.028950002,1781203753981
2094282415,3,-0.27705002,10.159051,0.03195,1781203753992
2094282425,3,-0.23895001,10.126051,0.102000006,1781203754001
2094282435,3,-0.20805001,9.984,0.13800001,1781203754012
2094282446,3,-0.21300001,9.999001,0.16605,1781203754022
2094282456,3,-0.18405001,10.04205,0.12105001,1781203754032
2094282466,3,-0.15300001,10.03905,0.123,1781203754042
2094282476,3,-0.16905001,10.08495,0.14295001,1781203754052
2094282486,3,-0.15795001,10.02,0.15705001,1781203754063
2094282496,3,-0.124050006,10.008,0.17400001,1781203754072
2094282506,3,-0.16005,9.979951,0.12105001,1781203754082
2094282516,3,-0.16695,9.982051,0.043950003,1781203754093
2094282526,3,-0.14295001,9.931951,-0.028950002,1781203754102
2094282536,3,-0.15795001,9.913051,-0.034050003,1781203754112
2094282546,3,-0.15495001,9.967951,-0.043050002,1781203754122
2094282556,3,-0.165,9.946051,-0.036000002,1781203754132
2094282566,3,-0.18105,9.964951,-0.0049500004,1781203754142
2094282577,3,-0.19305001,10.032001,0.016050002,1781203754153
2094282587,3,-0.20505,10.08705,0.022950001,1781203754163
2094282597,3,-0.17400001,10.06095,0.15705001,1781203754173
2094282607,3,-0.16695,10.000951,0.22395001,1781203754183
2094282617,3,-0.16005,10.102051,0.025050001,1781203754193
2094282627,3,-0.246,10.200001,-0.21105,1781203754203
2094282637,3,-0.30105,10.11795,-0.10305001,1781203754214
2094282647,3,-0.282,10.188001,0.010950001,1781203754224
2094282657,3,-0.24105,10.07505,0.123,1781203754233
2094282667,3,-0.26505002,9.823951,0.12105001,1781203754245
2094282677,3,-0.29205,10.04205,-0.034050003,1781203754254
2094282687,3,-0.31800002,10.264951,-0.24705002,1781203754271
2094282697,3,-0.351,10.248,-0.22305001,1781203754274
2094282707,3,-0.33195,10.068001,-0.076950006,1781203754283
2094282718,3,-0.25995,10.047001,0.018000001,1781203754293
2094282728,3,-0.21495001,10.18095,0.123,1781203754304
2094282738,3,-0.23400001,10.153951,0.066,1781203754313
2094282748,3,-0.282,9.987,-0.14895001,1781203754325
2094282758,3,-0.30795002,10.032001,-0.16095,1781203754336
2094282768,3,-0.25605002,10.107,-0.07005,1781203754345
2094282778,3,-0.28005,10.135051,-0.0049500004,1781203754354
2094282788,3,-0.31995,10.03005,0.075,1781203754364
2094282798,3,-0.29895002,10.00395,0.08505,1781203754374
2094282808,3,-0.30795002,10.120951,0.049050003,1781203754385
2094282818,3,-0.33,10.17105,0.058950003,1781203754394
2094282828,3,-0.351,10.008,0.03195,1781203754405
2094282838,3,-0.33705002,10.023001,0.13095,1781203754414
2094282848,3,-0.29595003,10.114051,0.18105,1781203754425
2094282859,3,-0.27,10.17405,0.16395001,1781203754435
2094282869,3,-0.28005,10.096951,0.075,1781203754445
2094282879,3,-0.27195,9.913051,0.03705,1781203754455
2094282889,3,-0.27705002,9.7879505,-0.08595,1781203754465
2094282899,3,-0.23700002,10.240951,-0.108,1781203754476
2094282909,3,-0.20295002,10.473001,-0.16095,1781203754486
2094282919,3,-0.24105,10.153951,-0.177,1781203754496
2094282929,3,-0.28395,9.92895,-0.10095,1781203754506
2094282939,3,-0.25095,10.33395,-0.132,1781203754516
2094282949,3,-0.13605,10.473001,-0.30900002,1781203754528
2094282959,3,-0.06705,10.387051,-0.46905002,1781203754535
2094282969,3,-0.19605,10.08705,-0.72795004,1781203754545
2094282979,3,-0.31095,9.8890505,-0.75195,1781203754555
2094282990,3,-0.31995,9.982051,-0.78300005,1781203754565
2094283000,3,-0.33495003,10.19295,-0.65895003,1781203754575
2094283010,3,-0.38295,10.240951,-0.55995005,1781203754585
2094283020,3,-0.40695003,10.20195,-0.41895002,1781203754595
2094283030,3,-0.43305,10.00395,-0.31605002,1781203754606
2094283040,3,-0.47400004,9.89805,-0.24195,1781203754616
2094283050,3,-0.423,9.867001,-0.27795002,1781203754626
2094283060,3,-0.39900002,9.951,-0.57195,1781203754636
2094283070,3,-0.43005002,10.33905,-0.39795002,1781203754646
2094283080,3,-0.43005002,10.16205,-0.30705002,1781203754656
2094283090,3,-0.45405003,9.594001,0.16395001,1781203754666
2094283100,3,-0.45195,9.72105,0.15405001,1781203754677
2094283110,3,-0.37995002,10.011001,0.066,1781203754687
2094283120,3,-0.19605,9.87195,-0.120000005,1781203754697
2094283131,3,-0.112050004,10.07505,-0.23505001,1781203754706
2094283141,3,-0.07395,10.308001,-0.16305001,1781203754717
2094283151,3,-0.049950004,10.16205,-0.10305001,1781203754727
2094283161,3,-0.055050004,10.144951,-0.052950002,1781203754737
2094283171,3,-0.21300001,10.399051,-0.15300001,1781203754748
2094283181,3,-0.27195,10.375051,-0.33105,1781203754757
2094283191,3,-0.24405001,10.33905,-0.46500003,1781203754768
2094283201,3,-0.13800001,10.248,-0.50100005,1781203754778
2094283211,3,0.058950003,10.2619505,-0.47205,1781203754788
2094283221,3,0.17205001,10.300051,-0.37395,1781203754798
2094283231,3,0.15495001,10.095,-0.39795002,1781203754809
2094283241,3,0.043050002,10.04895,-0.36195,1781203754818
2094283251,3,-0.055050004,10.267051,-0.34695002,1781203754829
2094283262,3,-0.06705,10.36695,-0.31095,1781203754839
2094283272,3,-0.078,10.129951,-0.261,1781203754848
2094283282,3,-0.009000001,10.108951,-0.24900001,1781203754858
2094283292,3,0.040050004,9.963,-0.27495003,1781203754868
2094283302,3,0.052050002,9.90795,-0.29505002,1781203754879
2094283312,3,0.03795,10.07505,-0.381,1781203754889
2094283322,3,0.055050004,9.967951,-0.33105,1781203754899
2094283332,3,0.102000006,9.711,-0.22305001,1781203754908
2094283342,3,0.12900001,9.783,-0.19605,1781203754919
2094283352,3,0.06705,10.047001,-0.24705002,1781203754929
2094283362,3,-0.055050004,10.153951,-0.36600003,1781203754938
2094283372,3,-0.13095,10.080001,-0.38595003,1781203754948
2094283382,3,-0.162,10.16895,-0.252,1781203754959
2094283392,3,-0.20295002,10.332001,-0.105000004,1781203754969
2094283403,3,-0.22500001,10.272,-0.003,1781203754979
2094283413,3,-0.31605002,10.128,-0.012,1781203754989
2094283423,3,-0.37800002,10.15005,-0.132,1781203754999
2094283433,3,-0.48600003,10.19295,-0.19395001,1781203755009
2094283443,3,-0.49695003,10.19295,-0.12900001,1781203755019
2094283453,3,-0.45705003,10.152,-0.08895,1781203755029
2094283463,3,-0.39705002,10.08705,0.08505,1781203755039
2094283473,3,-0.30795002,9.92205,0.13995,1781203755049
2094283483,3,-0.23700002,9.8550005,0.28095,1781203755059
2094283493,3,-0.21000001,9.811951,0.23295002,1781203755070
2094283503,3,-0.36795002,9.8550005,0.19800001,1781203755080
2094283513,3,-0.49005002,9.811951,0.291,1781203755089
2094283523,3,-0.36795002,9.73305,0.23295002,1781203755100
2094283534,3,-0.36795002,9.51,0.45600003,1781203755110
2094283544,3,-0.342,9.477,0.564,1781203755120
2094283554,3,-0.28905,9.57705,0.54195005,1781203755130
2094283564,3,-0.15300001,9.640051,0.44205,1781203755140
2094283574,3,-0.17895001,9.679951,0.351,1781203755150
2094283584,3,-0.23700002,9.8220005,0.303,1781203755160
2094283594,3,-0.26505002,10.011001,0.231,1781203755170
2094283604,3,-0.363,10.0990505,0.07305,1781203755180
2094283614,3,-0.42105,10.177951,-0.112950005,1781203755191
2094283624,3,-0.39495003,10.285951,-0.23505001,1781203755201
2094283634,3,-0.31305,10.329,-0.20595,1781203755211
2094283644,3,-0.19800001,10.324051,-0.14895001,1781203755221
2094283654,3,-0.045,10.30305,-0.112950005,1781203755230
2094283664,3,0.021000002,10.21695,-0.12195001,1781203755240
2094283675,3,-0.034950003,10.16895,-0.105000004,1781203755251
2094283685,3,-0.21300001,10.20495,-0.07395,1781203755261
2094283695,3,-0.45000002,10.341001,0.03705,1781203755272
2094283705,3,-0.55695003,10.405951,0.13800001,1781203755282
2094283715,3,-0.56205004,10.39095,0.30105,1781203755291
2094283725,3,-0.46605003,10.33395,0.43905002,1781203755301
2094283735,3,-0.28005,10.264951,0.41505003,1781203755311
2094283745,3,-0.19800001,10.141951,0.34395,1781203755321
2094283755,3,-0.07395,10.02495,0.14505,1781203755331
2094283765,3,0.009000001,10.008,0.034950003,1781203755342
2094283775,3,0.0019500001,10.01805,0.03705,1781203755351
2094283785,3,-0.15300001,9.984,0.11100001,1781203755361
2094283795,3,-0.24105,9.982051,0.13095,1781203755371
2094283806,3,-0.22500001,9.972,0.15195,1781203755382
2094283816,3,-0.165,9.850051,0.186,1781203755392
2094283826,3,-0.141,9.89295,0.15,1781203755402
2094283836,3,-0.21000001,10.012951,0.109050006,1781203755412
2094283846,3,-0.31095,10.15005,0.052050002,1781203755422
2094283856,3,-0.34695002,10.165951,-0.012,1781203755432
2094283866,3,-0.33195,10.008,0.094950005,1781203755442
2094283876,3,-0.27,9.9529505,0.25695002,1781203755452
2094283886,3,-0.25605002,10.066051,0.46605003,1781203755462
2094283896,3,-0.282,10.01805,0.52095,1781203755473
2094283906,3,-0.34695002,9.96,0.43695003,1781203755482
2094283916,3,-0.45900002,10.011001,0.45600003,1781203755493
2094283926,3,-0.43305,10.18605,0.39600003,1781203755502
2094283936,3,-0.36795002,10.308001,0.51105005,1781203755513
2094283947,3,-0.30105,10.23795,0.49395,1781203755522
2094283957,3,-0.19305001,10.00605,0.528,1781203755533
2094283967,3,-0.13605,10.032001,0.45600003,1781203755543
2094283977,3,-0.078,10.329,0.41295,1781203755553
2094283987,3,-0.109950006,10.126051,0.35595003,1781203755563
2094283997,3,-0.16005,9.880951,0.27405003,1781203755573
2094284007,3,-0.19800001,9.958051,0.01305,1781203755583
2094284017,3,-0.22200002,10.032001,-0.21105,1781203755593
2094284027,3,-0.342,9.817051,-0.46695003,1781203755603
2094284037,3,-0.39495003,9.880951,-0.63705003,1781203755613
2094284047,3,-0.35895002,10.04895,-0.702,1781203755623
2094284057,3,-0.24405001,9.963,-0.61095005,1781203755633
2094284067,3,-0.126,9.807,-0.48105,1781203755644
2094284078,3,-0.117000006,9.89295,-0.52005005,1781203755654
2094284088,3,-0.109950006,9.955951,-0.46005002,1781203755664
2094284098,3,-0.15795001,9.967951,-0.40695003,1781203755674
2094284108,3,-0.27495003,10.108951,-0.261,1781203755684
2094284118,3,-0.38505003,10.233001,-0.094050005,1781203755694
2094284128,3,-0.40695003,10.159051,0.01305,1781203755704
2094284138,3,-0.38295,10.221001,0.09705,1781203755714
2094284148,3,-0.37095,10.432051,0.147,1781203755724
2094284158,3,-0.33495003,10.356001,0.11895001,1781203755734
2094284168,3,-0.27705002,10.33605,0.025050001,1781203755749
2094284178,3,-0.29595003,10.497001,-0.024,1781203755755
2094284188,3,-0.32505003,10.435051,-0.025950002,1781203755765
2094284198,3,-0.282,10.33605,-0.11505,1781203755775
2094284208,3,-0.28395,10.33605,-0.177,1781203755785
2094284219,3,-0.26805001,10.269,-0.29205,1781203755795
2094284229,3,-0.22905001,10.104,-0.32595003,1781203755805
2094284239,3,-0.25305,9.984,-0.36900002,1781203755815
2094284249,3,-0.24105,9.937051,-0.30195,1781203755826
2094284259,3,-0.28395,9.88605,-0.22800002,1781203755837
2094284269,3,-0.28005,9.802051,-0.16995001,1781203755846
2094284279,3,-0.25995,9.73995,-0.132,1781203755856
2094284289,3,-0.30105,9.70005,-0.10095,1781203755865
2094284299,3,-0.29895002,9.69495,-0.064950004,1781203755876
2094284309,3,-0.29595003,9.702001,-0.0049500004,1781203755887
2094284319,3,-0.28395,9.68805,0.025050001,1781203755896
2094284329,3,-0.28395,9.72105,0.040050004,1781203755906
2094284339,3,-0.27705002,9.799951,0.079950005,1781203755916
2094284350,3,-0.31800002,9.903001,0.052050002,1781203755926
2094284360,3,-0.32505003,9.92895,-0.00705,1781203755936
2094284370,3,-0.33195,10.008,-0.08205,1781203755946
2094284380,3,-0.33900002,10.083,-0.112950005,1781203755956
2094284390,3,-0.294,10.200001,-0.10305001,1781203755966
2094284400,3,-0.25095,10.285951,-0.112950005,1781203755977
2094284410,3,-0.23205002,10.324051,-0.14895001,1781203755986
2094284420,3,-0.24105,10.36995,-0.17505,1781203755996
2094284430,3,-0.24795002,10.34805,-0.24195,1781203756007
2094284440,3,-0.26295,10.309951,-0.25605002,1781203756016
2094284450,3,-0.27195,10.332001,-0.28695002,1781203756027
2094284460,3,-0.23205002,10.24995,-0.24195,1781203756036
2094284470,3,-0.20505,10.20195,-0.216,1781203756046
2094284480,3,-0.15,10.156951,-0.12900001,1781203756057
2094284491,3,-0.177,10.102051,-0.03795,1781203756067
2094284501,3,-0.22005,10.116,0.0010500001,1781203756077
2094284511,3,-0.25995,10.059,0.01995,1781203756087
2094284521,3,-0.26505002,10.03905,0.034950003,1781203756098
2094284531,3,-0.27,10.03005,0.030000001,1781203756108
2094284541,3,-0.246,9.958051,-0.00705,1781203756118
2094284551,3,-0.23205002,9.949051,-0.04095,1781203756128
2094284561,3,-0.24795002,9.934051,-0.01695,1781203756137
2094284571,3,-0.26295,9.92205,-0.010050001,1781203756147
2094284581,3,-0.27495003,9.967951,-0.0049500004,1781203756157
2094284591,3,-0.28005,10.02795,0.00405,1781203756168
2094284601,3,-0.25605002,10.01595,-0.028950002,1781203756177
2094284611,3,-0.24405001,10.008,-0.060000002,1781203756187
2094284622,3,-0.24105,10.047001,-0.108,1781203756197
2094284632,3,-0.25095,10.095,-0.10095,1781203756208
2094284642,3,-0.26805001,10.189951,-0.11505,1781203756219
2094284652,3,-0.28905,10.264951,-0.096,1781203756228
2094284662,3,-0.28005,10.24995,-0.09105001,1781203756237
2094284672,3,-0.26805001,10.240951,-0.13395001,1781203756249
2094284682,3,-0.25605002,10.2289505,-0.12195001,1781203756260
2094284692,3,-0.20505,10.18095,-0.13695,1781203756269
2094284702,3,-0.20505,10.15005,-0.105000004,1781203756278
2094284712,3,-0.20805001,10.120951,-0.096,1781203756288
2094284722,3,-0.22905001,10.120951,-0.08400001,1781203756298
2094284732,3,-0.26295,10.05105,-0.036000002,1781203756308
2094284742,3,-0.26505002,9.982051,0.0010500001,1781203756318
2094284752,3,-0.27495003,9.976951,0.022950001,1781203756328
2094284763,3,-0.23205002,9.90495,0.0,1781203756339
2094284773,3,-0.21705002,9.858001,-0.025950002,1781203756348
2094284783,3,-0.19605,9.90795,-0.034050003,1781203756360
2094284793,3,-0.21705002,9.87195,0.010950001,1781203756369
2094284803,3,-0.25305,9.858001,0.00405,1781203756379
2094284813,3,-0.26505002,9.9199505,0.025050001,1781203756389
2094284823,3,-0.27,9.970051,0.00795,1781203756399
2094284833,3,-0.23400001,9.99195,-0.012,1781203756409
2094284843,3,-0.22200002,10.032001,-0.031050002,1781203756419
2094284853,3,-0.19800001,10.108951,-0.08205,1781203756429
2094284863,3,-0.20805001,10.152,-0.12495001,1781203756439
2094284873,3,-0.19605,10.176001,-0.19395001,1781203756450
2094284883,3,-0.17400001,10.279051,-0.21795002,1781203756459
2094284894,3,-0.19605,10.248,-0.21300001,1781203756469
2094284904,3,-0.19305001,10.308001,-0.17505,1781203756479
2094284914,3,-0.21300001,10.32705,-0.17295001,1781203756490
2094284924,3,-0.22200002,10.26,-0.16995001,1781203756500
2094284934,3,-0.25995,10.264951,-0.165,1781203756510
2094284944,3,-0.282,10.236,-0.141,1781203756520
2094284954,3,-0.31605002,10.19505,-0.079050004,1781203756530
2094284964,3,-0.32505003,10.200001,-0.04095,1781203756540
2094284974,3,-0.282,10.147051,-0.024,1781203756550
2094284984,3,-0.27705002,10.0990505,-0.031050002,1781203756561
2094284994,3,-0.27705002,10.056001,-0.079050004,1781203756570
2094285004,3,-0.29205,9.99405,-0.097950004,1781203756580
2094285014,3,-0.29895002,9.996,-0.094050005,1781203756590
2094285024,3,-0.31305,9.972,-0.072000004,1781203756601
2094285035,3,-0.31800002,9.91005,-0.079050004,1781203756611
2094285045,3,-0.29205,9.903001,-0.10305001,1781203756621
2094285055,3,-0.27,9.913051,-0.08205,1781203756631
2094285065,3,-0.24405001,9.88395,-0.08400001,1781203756641
2094285075,3,-0.22905001,9.89295,-0.097950004,1781203756652
2094285085,3,-0.23400001,9.90795,-0.13395001,1781203756664
2094285095,3,-0.22695,9.931951,-0.13905,1781203756675
2094285105,3,-0.23400001,9.975,-0.13695,1781203756682
2094285115,3,-0.24405001,9.982051,-0.141,1781203756696
2094285125,3,-0.24795002,9.99195,-0.14400001,1781203756700
2094285135,3,-0.24795002,10.066051,-0.09105001,1781203756711
2094285145,3,-0.23205002,10.04895,-0.055050004,1781203756721
2094285155,3,-0.27195,10.071,-0.02205,1781203756733
2094285165,3,-0.28395,10.135051,-0.024,1781203756741
2094285176,3,-0.28905,10.152,-0.061950002,1781203756752
2094285186,3,-0.26505002,10.165951,-0.094050005,1781203756761
2094285196,3,-0.23895001,10.188001,-0.097950004,1781203756772
2094285206,3,-0.25800002,10.20495,-0.048,1781203756782
2094285216,3,-0.25995,10.224001,-0.055050004,1781203756793
2094285226,3,-0.27495003,10.264951,-0.08895,1781203756802
2094285236,3,-0.26295,10.20705,-0.16800001,1781203756812
2094285246,3,-0.22905001,10.1640005,-0.14895001,1781203756822
2094285256,3,-0.19605,10.114051,-0.12495001,1781203756832
2094285266,3,-0.19800001,10.104,-0.12195001,1781203756842
2094285276,3,-0.17895001,10.03005,-0.141,1781203756852
2094285286,3,-0.201,9.964951,-0.12495001,1781203756863
2094285296,3,-0.23400001,10.011001,-0.079050004,1781203756872
2094285307,3,-0.24405001,9.979951,-0.06705,1781203756883
2094285317,3,-0.246,9.970051,-0.061950002,1781203756893
2094285327,3,-0.26295,9.976951,-0.076950006,1781203756903
2094285337,3,-0.23895001,9.946051,-0.07395,1781203756913
2094285347,3,-0.26505002,10.012951,-0.04095,1781203756923
2094285357,3,-0.246,10.01805,0.0,1781203756934
2094285367,3,-0.26295,10.035001,0.0,1781203756943
2094285377,3,-0.28905,10.080001,-0.048,1781203756954
2094285387,3,-0.30405003,10.123051,-0.061950002,1781203756963
2094285397,3,-0.29595003,10.14,-0.055050004,1781203756973
2094285407,3,-0.31605002,10.156951,-0.08205,1781203756983
2094285417,3,-0.31605002,10.20195,-0.12705001,1781203756994
2094285427,3,-0.32295,10.22595,-0.15300001,1781203757004
2094285437,3,-0.30600002,10.20195,-0.156,1781203757014
2094285448,3,-0.27195,10.21905,-0.16995001,1781203757024
2094285458,3,-0.26295,10.189951,-0.120000005,1781203757034
2094285468,3,-0.24795002,10.104,-0.12195001,1781203757044
2094285478,3,-0.25305,10.104,-0.105000004,1781203757054
2094285488,3,-0.25800002,10.078051,-0.08895,1781203757064
2094285498,3,-0.23700002,9.99195,-0.07395,1781203757075
2094285508,3,-0.26295,9.949051,-0.034050003,1781203757084
2094285518,3,-0.25995,9.937051,-0.012,1781203757094
2094285528,3,-0.23700002,9.913051,0.01305,1781203757104
2094285538,3,-0.25095,9.8890505,0.0010500001,1781203757115
2094285548,3,-0.20505,9.91005,-0.02205,1781203757125
2094285558,3,-0.20295002,9.92895,-0.028950002,1781203757134
2094285568,3,-0.21495001,9.964951,-0.01905,1781203757145
2094285579,3,-0.22905001,9.988951,-0.024,1781203757155
2094285589,3,-0.27705002,10.032001,-0.034050003,1781203757165
2094285599,3,-0.27195,10.07295,-0.064950004,1781203757175
2094285609,3,-0.27705002,10.135051,-0.10305001,1781203757185
2094285619,3,-0.27495003,10.153951,-0.12195001,1781203757195
2094285629,3,-0.246,10.177951,-0.14895001,1781203757205
2094285639,3,-0.24405001,10.1980505,-0.18,1781203757216
2094285649,3,-0.24795002,10.2310505,-0.165,1781203757225
2094285659,3,-0.25305,10.212001,-0.16095,1781203757235
2094285669,3,-0.27705002,10.20195,-0.16305001,1781203757244
2094285679,3,-0.26805001,10.2310505,-0.13395001,1781203757256
2094285689,3,-0.25305,10.224001,-0.112950005,1781203757265
2094285699,3,-0.24405001,10.18605,-0.08400001,1781203757279
2094285709,3,-0.246,10.135051,-0.072000004,1781203757285
2094285720,3,-0.22005,10.08495,-0.08595,1781203757295
2094285730,3,-0.23400001,10.07505,-0.08895,1781203757305
2094285740,3,-0.22500001,10.05105,-0.08400001,1781203757316
2094285750,3,-0.246,10.023001,-0.08205,1781203757326
2094285760,3,-0.27195,10.035001,-0.07395,1781203757336
2094285770,3,-0.27,10.023001,-0.07395,1781203757346
2094285780,3,-0.29205,9.99405,-0.08400001,1781203757356
2094285790,3,-0.29595003,9.982051,-0.072000004,1781203757366
2094285800,3,-0.31305,9.99405,-0.08205,1781203757376
2094285810,3,-0.31605002,9.988951,-0.08595,1781203757386
2094285820,3,-0.31095,9.99195,-0.07005,1781203757397
2094285830,3,-0.31305,9.99405,-0.07395,1781203757407
2094285840,3,-0.30105,9.996,-0.08400001,1781203757417
2094285851,3,-0.27195,10.00395,-0.08595,1781203757427
2094285861,3,-0.27495003,9.99405,-0.094050005,1781203757437
2094285871,3,-0.24405001,10.032001,-0.108,1781203757447
2094285881,3,-0.26505002,10.078051,-0.094050005,1781203757457
2094285891,3,-0.24405001,10.102051,-0.097950004,1781203757468
2094285901,3,-0.24405001,10.107,-0.076950006,1781203757477
2094285911,3,-0.25800002,10.13805,-0.064950004,1781203757487
2094285921,3,-0.246,10.153951,-0.07005,1781203757497
2094285931,3,-0.24405001,10.153951,-0.08595,1781203757507
2094285941,3,-0.21495001,10.1640005,-0.096,1781203757517
2094285951,3,-0.22005,10.16205,-0.10095,1781203757527
2094285961,3,-0.22500001,10.152,-0.094050005,1781203757537
2094285971,3,-0.22695,10.152,-0.105000004,1781203757548
2094285981,3,-0.21705002,10.129951,-0.096,1781203757557
2094285992,3,-0.23205002,10.129951,-0.11505,1781203757568
2094286002,3,-0.25095,10.102051,-0.11505,1781203757578
2094286012,3,-0.25800002,10.102051,-0.09105001,1781203757588
2094286022,3,-0.27195,10.071,-0.07395,1781203757598
2094286032,3,-0.25605002,10.056001,-0.08895,1781203757608
2094286042,3,-0.25305,10.008,-0.072000004,1781203757618
2094286052,3,-0.24105,9.99405,-0.06705,1781203757628
2094286062,3,-0.24795002,10.000951,-0.07005,1781203757638
2094286072,3,-0.246,10.00395,-0.048,1781203757648
2094286082,3,-0.26805001,9.970051,-0.049950004,1781203757658
2094286092,3,-0.25800002,10.01805,-0.06705,1781203757669
2094286102,3,-0.24795002,10.04205,-0.08895,1781203757678
2094286112,3,-0.246,10.044001,-0.097950004,1781203757689
2094286123,3,-0.24405001,10.071,-0.094050005,1781203757700
2094286133,3,-0.25305,10.102051,-0.10305001,1781203757709
2094286143,3,-0.24795002,10.126051,-0.08895,1781203757719
2094286153,3,-0.246,10.147051,-0.096,1781203757729
2094286163,3,-0.26295,10.123051,-0.10305001,1781203757741
2094286173,3,-0.28695002,10.123051,-0.10305001,1781203757749
2094286183,3,-0.294,10.13805,-0.105000004,1781203757759
2094286193,3,-0.30405003,10.144951,-0.105000004,1781203757769
2094286203,3,-0.30105,10.129951,-0.10305001,1781203757779
2094286213,3,-0.29595003,10.096951,-0.08400001,1781203757790
2094286223,3,-0.29205,10.08705,-0.08595,1781203757800
2094286233,3,-0.27195,10.071,-0.061950002,1781203757810
2094286243,3,-0.26805001,10.044001,-0.06705,1781203757821
2094286253,3,-0.25095,10.032001,-0.07005,1781203757830
2094286264,3,-0.25995,10.02795,-0.07005,1781203757840
2094286274,3,-0.246,10.00605,-0.064950004,1781203757851
2094286284,3,-0.24105,9.976951,-0.043050002,1781203757860
2094286294,3,-0.23895001,9.99405,-0.058050003,1781203757870
2094286304,3,-0.22200002,9.999001,-0.058050003,1781203757880
2094286314,3,-0.20295002,9.99195,-0.079050004,1781203757890
2094286324,3,-0.19095,10.02,-0.08595,1781203757900
2094286334,3,-0.21495001,10.032001,-0.08895,1781203757910
2094286344,3,-0.22005,10.03905,-0.09105001,1781203757921
2094286354,3,-0.22905001,10.104,-0.08595,1781203757932
2094286364,3,-0.22905001,10.128,-0.096,1781203757940
2094286374,3,-0.25305,10.129951,-0.097950004,1781203757950
2094286384,3,-0.246,10.152,-0.105000004,1781203757961
2094286395,3,-0.25095,10.15005,-0.120000005,1781203757971
2094286405,3,-0.25305,10.16895,-0.11505,1781203757981
2094286415,3,-0.24795002,10.153951,-0.12705001,1781203757991
2094286425,3,-0.25995,10.147051,-0.12705001,1781203758001
2094286435,3,-0.25305,10.147051,-0.109950006,1781203758011
2094286445,3,-0.24405001,10.159051,-0.10305001,1781203758021
2094286455,3,-0.25605002,10.114051,-0.096,1781203758031
2094286465,3,-0.24105,10.114051,-0.08895,1781203758041
2094286475,3,-0.246,10.107,-0.072000004,1781203758052
2094286485,3,-0.23895001,10.07505,-0.061950002,1781203758062
2094286495,3,-0.25605002,10.066051,-0.079050004,1781203758072
2094286505,3,-0.25305,10.047001,-0.07395,1781203758082
2094286515,3,-0.25800002,10.012951,-0.079050004,1781203758092
2094286525,3,-0.26505002,10.01595,-0.060000002,1781203758102
2094286536,3,-0.27,9.984,-0.076950006,1781203758111
2094286546,3,-0.26805001,9.976951,-0.072000004,1781203758122
2094286556,3,-0.282,9.988951,-0.061950002,1781203758133
2094286566,3,-0.28005,9.999001,-0.06705,1781203758142
2094286576,3,-0.27705002,10.008,-0.06705,1781203758152
2094286586,3,-0.27195,10.01805,-0.076950006,1781203758162
2094286596,3,-0.26805001,10.03905,-0.09105001,1781203758173
2094286606,3,-0.25995,10.066051,-0.096,1781203758182
2094286616,3,-0.28695002,10.05105,-0.08205,1781203758192
2094286626,3,-0.27,10.0990505,-0.09105001,1781203758202
2094286636,3,-0.26505002,10.132951,-0.08400001,1781203758212
2094286646,3,-0.25800002,10.132951,-0.08400001,1781203758226
2094286656,3,-0.25305,10.144951,-0.108,1781203758233
2094286667,3,-0.246,10.153951,-0.09105001,1781203758243
2094286677,3,-0.26805001,10.13805,-0.11505,1781203758253
2094286687,3,-0.27,10.15005,-0.10095,1781203758263
2094286697,3,-0.24795002,10.135051,-0.108,1781203758273
2094286707,3,-0.25305,10.144951,-0.094050005,1781203758283
2094286717,3,-0.25095,10.11795,-0.064950004,1781203758293
2094286727,3,-0.246,10.090051,-0.064950004,1781203758303
2094286737,3,-0.22500001,10.06305,-0.064950004,1781203758313
2094286747,3,-0.246,10.059,-0.079050004,1781203758323
2094286757,3,-0.23205002,10.023001,-0.079050004,1781203758333
2094286767,3,-0.22905001,10.02495,-0.08895,1781203758344
2094286777,3,-0.22695,10.02495,-0.094050005,1781203758353
2094286787,3,-0.22500001,10.04205,-0.08595,1781203758364
2094286797,3,-0.21495001,10.02795,-0.10095,1781203758374
2094286808,3,-0.246,10.04205,-0.09105001,1781203758384
2094286818,3,-0.23700002,10.05105,-0.08895,1781203758394
2094286828,3,-0.24795002,10.071,-0.08595,1781203758404
2094286838,3,-0.27195,10.114051,-0.109950006,1781203758414
2094286848,3,-0.29205,10.18605,-0.096,1781203758424
2094286858,3,-0.40395,10.312051,-0.165,1781203758434
2094286868,3,-0.37305,10.18605,-0.076950006,1781203758444
2094286878,3,-0.30600002,9.8220005,-0.15795001,1781203758454
2094286888,3,-0.25800002,9.903001,-0.26805001,1781203758464
2094286898,3,-0.15300001,10.224001,-0.36900002,1781203758474
2094286908,3,-0.17895001,10.080001,-0.18705001,1781203758485
2094286918,3,-0.27195,9.879001,0.016050002,1781203758495
2094286928,3,-0.33,10.114051,0.17805001,1781203758505
2094286939,3,-0.33195,10.21395,0.24300002,1781203758515
2094286949,3,-0.36600003,9.834001,0.052050002,1781203758524
2094286959,3,-0.39900002,10.116,-0.034050003,1781203758535
2094286969,3,-0.30795002,10.2960005,-0.14400001,1781203758545
2094286979,3,-0.24405001,9.89595,-0.105000004,1781203758555
2094286989,3,-0.13605,9.934051,-0.049950004,1781203758565
2094286999,3,-0.162,10.07505,0.0,1781203758575
2094287009,3,-0.23700002,10.108951,-0.003,1781203758586
2094287019,3,-0.34395,10.080001,-0.14895001,1781203758595
2094287029,3,-0.41595003,10.123051,-0.14595,1781203758606
2094287039,3,-0.33495003,10.165951,-0.15795001,1781203758615
2094287049,3,-0.22695,10.071,-0.11505,1781203758626
2094287059,3,-0.186,10.071,-0.14400001,1781203758636
2094287069,3,-0.162,10.123051,-0.12900001,1781203758646
2094287080,3,-0.19800001,10.092,-0.16995001,1781203758655
2094287090,3,-0.23205002,10.08495,-0.24195,1781203758666
2094287100,3,-0.27705002,10.18305,-0.22995001,1781203758676
2094287110,3,-0.33900002,10.269,-0.18405001,1781203758685
2094287120,3,-0.32295,10.19295,-0.094050005,1781203758697
2094287130,3,-0.30600002,10.0990505,-0.079050004,1781203758706
2094287140,3,-0.31605002,10.08705,-0.105000004,1781203758716
2094287150,3,-0.30405003,10.07295,-0.19395001,1781203758726
2094287160,3,-0.25305,10.114051,-0.24195,1781203758740
2094287170,3,-0.19800001,10.18095,-0.13695,1781203758747
2094287180,3,-0.21705002,10.035001,-0.076950006,1781203758757
2094287190,3,-0.25095,9.967951,0.0,1781203758767
2094287200,3,-0.39000002,10.096951,-0.012,1781203758777
2094287210,3,-0.411,10.116,0.066,1781203758786
2094287221,3,-0.44205,10.056001,-0.00705,1781203758797
2094287231,3,-0.46395,10.19295,0.06105,1781203758807
2094287241,3,-0.36600003,10.096951,0.022950001,1781203758817
2094287251,3,-0.31305,9.979951,0.05595,1781203758828
2094287261,3,-0.282,10.023001,0.109050006,1781203758839
2094287271,3,-0.28905,9.967951,0.00405,1781203758848
2094287281,3,-0.35895002,10.01805,-0.06705,1781203758857
2094287291,3,-0.411,10.123051,-0.12705001,1781203758867
2094287301,3,-0.44505003,9.955951,-0.048,1781203758878
2094287311,3,-0.43305,9.94095,-0.13395001,1781203758889
2094287321,3,-0.423,10.011001,-0.08895,1781203758898
2094287331,3,-0.43995002,9.585,-0.09105001,1781203758908
2094287341,3,-0.44205,9.634951,-0.052950002,1781203758917
2094287352,3,-0.423,10.066051,0.04695,1781203758927
2094287362,3,-0.41805002,9.826051,0.09195001,1781203758938
2094287372,3,-0.55995005,9.70905,0.171,1781203758948
2094287382,3,-0.66300005,9.55605,0.19305001,1781203758958
2094287392,3,-0.73200005,10.068001,0.109050006,1781203758969
2094287402,3,-0.56700003,10.449,0.24105,1781203758978
2094287412,3,-0.39195,10.5709505,0.23805001,1781203758988
2094287422,3,-0.22905001,10.24995,0.29805002,1781203758999
2094287432,3,-0.094950005,10.177951,0.279,1781203759008
2094287442,3,-0.016050002,10.044001,0.28095,1781203759018
2094287452,3,-0.08295,10.18095,0.16395001,1781203759028
2094287462,3,-0.17205001,10.285951,0.17805001,1781203759038
2094287472,3,-0.30405003,10.071,0.079950005,1781203759049
2094287482,3,-0.41595003,10.132951,0.00405,1781203759059
2094287493,3,-0.51900005,10.189951,-0.072000004,1781203759070
2094287503,3,-0.555,10.06305,-0.03795,1781203759079
2094287513,3,-0.45405003,10.188001,0.022950001,1781203759089
2094287523,3,-0.24105,10.236,0.075,1781203759099
2094287533,3,-0.20505,10.132951,0.094950005,1781203759109
2094287543,3,-0.246,9.943951,0.09,1781203759120
2094287553,3,-0.37305,9.7900505,0.075,1781203759129
2094287563,3,-0.54105,9.92895,0.12795001,1781203759140
2094287573,3,-0.71805006,9.964951,0.058950003,1781203759151
2094287583,3,-0.84495,10.011001,0.049050003,1781203759160
2094287593,3,-0.81600004,10.18305,-0.024,1781203759169
2094287603,3,-0.66495,10.096951,-0.10305001,1781203759179
2094287613,3,-0.56895,9.943951,-0.12195001,1781203759189
2094287624,3,-0.48795003,9.987,-0.17295001,1781203759199
2094287634,3,-0.45000002,10.06095,-0.31095,1781203759209
2094287644,3,-0.54105,10.092,-0.36195,1781203759219
2094287654,3,-0.66495,10.095,-0.37095,1781203759229
2094287664,3,-0.79005,10.189951,-0.24705002,1781203759241
2094287674,3,-0.80895007,10.291051,-0.079050004,1781203759250
2094287684,3,-0.76095,10.19505,-0.058050003,1781203759259
2094287694,3,-0.69405,10.111051,-0.055050004,1781203759270
2094287704,3,-0.591,10.18605,-0.108,1781203759279
2094287714,3,-0.49995002,10.2960005,-0.043050002,1781203759291
2094287724,3,-0.43800002,10.411051,0.00795,1781203759300
2094287734,3,-0.402,10.188001,0.040050004,1781203759310
2094287744,3,-0.46605003,10.156951,0.025050001,1781203759321
2094287754,3,-0.65805006,10.18095,-0.00705,1781203759330
2094287765,3,-0.65805006,10.176001,-0.003,1781203759341
2094287775,3,-0.6,10.17105,-0.01905,1781203759351
2094287785,3,-0.531,10.03005,-0.00705,1781203759361
2094287795,3,-0.46395,9.7879505,-0.01695,1781203759371
2094287805,3,-0.47595003,9.74295,-0.024,1781203759381
2094287815,3,-0.48795003,10.01595,-0.00705,1781203759391
2094287825,3,-0.56505,10.200001,-0.01905,1781203759401
2094287835,3,-0.64395005,10.120951,-0.096,1781203759411
2094287845,3,-0.77505004,10.011001,-0.25605002,1781203759421
2094287855,3,-0.82995003,10.02,-0.42600003,1781203759431
2094287865,3,-0.81600004,10.255051,-0.41895002,1781203759442
2094287875,3,-0.67905,10.212001,-0.37800002,1781203759452
2094287885,3,-0.56700003,10.01805,-0.28695002,1781203759461
2094287896,3,-0.56505,9.958051,-0.29205,1781203759472
2094287906,3,-0.591,10.04205,-0.28305,1781203759482
2094287916,3,-0.624,10.107,-0.33495003,1781203759492
2094287926,3,-0.62895006,10.21695,-0.22800002,1781203759502
2094287936,3,-0.61695004,10.1980505,-0.03795,1781203759512
2094287946,3,-0.55995005,10.078051,-0.012,1781203759522
2094287956,3,-0.46605003,10.17105,0.075,1781203759533
2094287966,3,-0.39495003,10.1640005,0.006,1781203759542
2094287976,3,-0.43305,10.36305,-0.112950005,1781203759552
2094287986,3,-0.47100002,10.212001,-0.064950004,1781203759562
2094287996,3,-0.57900006,10.144951,-0.17505,1781203759573
2094288006,3,-0.60795003,10.188001,-0.15795001,1781203759582
2094288016,3,-0.57600003,10.176001,-0.23505001,1781203759593
2094288026,3,-0.57600003,10.111051,-0.18705001,1781203759603
2094288037,3,-0.624,9.87195,-0.21795002,1781203759613
2094288047,3,-0.63900006,9.94095,-0.216,1781203759623
2094288057,3,-0.64605004,9.982051,-0.156,1781203759633
2094288067,3,-0.6,9.972,-0.105000004,1781203759643
2094288077,3,-0.62205005,9.984,-0.109950006,1781203759653
2094288087,3,-0.56895,9.999001,-0.076950006,1781203759663
2094288097,3,-0.52905005,9.793051,-0.13695,1781203759673
2094288107,3,-0.54300004,9.99195,-0.192,1781203759684
2094288117,3,-0.54300004,10.08495,-0.112950005,1781203759694
2094288127,3,-0.53295004,9.946051,-0.12900001,1781203759704
2094288137,3,-0.57195,9.958051,-0.17505,1781203759715
2094288147,3,-0.54300004,9.996,-0.156,1781203759724
2094288157,3,-0.58605003,9.979951,-0.09105001,1781203759736
2094288168,3,-0.67695004,9.999001,-0.120000005,1781203759745
2094288178,3,-0.70095,10.08495,-0.12195001,1781203759754
2094288188,3,-0.67905,10.245001,-0.16800001,1781203759764
2094288198,3,-0.591,10.047001,-0.12705001,1781203759774
2094288208,3,-0.54495,10.02,-0.120000005,1781203759785
2094288218,3,-0.50895,10.080001,-0.064950004,1781203759794
2094288228,3,-0.53295004,10.090051,-0.060000002,1781203759804
2094288238,3,-0.55005,10.200001,-0.120000005,1781203759814
2094288248,3,-0.58395004,10.090051,-0.13395001,1781203759825
2094288258,3,-0.64605004,10.111051,-0.18405001,1781203759835
2094288268,3,-0.61695004,10.21395,-0.23505001,1781203759845
2094288278,3,-0.55305004,10.221001,-0.21300001,1781203759856
2094288288,3,-0.49995002,10.144951,-0.28995,1781203759865
2094288298,3,-0.52395004,10.00395,-0.22995001,1781203759875
2094288309,3,-0.59295005,9.988951,-0.252,1781203759885
2094288319,3,-0.62895006,10.032001,-0.21105,1781203759895
2094288329,3,-0.62895006,10.14,-0.18,1781203759905
2094288339,3,-0.63405,10.135051,-0.16305001,1781203759915
2094288349,3,-0.71805006,10.02,-0.177,1781203759925
2094288359,3,-0.72495,9.967951,-0.097950004,1781203759935
2094288369,3,-0.624,9.958051,-0.109950006,1781203759945
2094288379,3,-0.57900006,9.996,-0.16995001,1781203759956
2094288389,3,-0.58395004,10.15005,-0.19605,1781203759965
2094288399,3,-0.55695003,10.108951,-0.24000001,1781203759976
2094288409,3,-0.61005,10.111051,-0.22305001,1781203759986
2094288419,3,-0.65295005,10.14,-0.16800001,1781203759996
2094288429,3,-0.65295005,10.126051,-0.20400001,1781203760006
2094288440,3,-0.66705,10.176001,-0.24000001,1781203760016
2094288450,3,-0.62700003,10.20495,-0.22800002,1781203760026
2094288460,3,-0.60495,10.132951,-0.22005,1781203760036
2094288470,3,-0.60300004,10.059,-0.22800002,1781203760046
2094288480,3,-0.60495,10.0990505,-0.23205002,1781203760056
2094288490,3,-0.63900006,10.144951,-0.22305001,1781203760067
2094288500,3,-0.67905,10.102051,-0.22800002,1781203760077
2094288510,3,-0.73905003,10.05105,-0.20400001,1781203760086
2094288520,3,-0.75105006,10.078051,-0.18,1781203760096
2094288530,3,-0.77505004,10.04205,-0.15300001,1781203760107
2094288540,3,-0.85695004,10.092,-0.19905001,1781203760116
2094288550,3,-0.87600005,10.102051,-0.17295001,1781203760127
2094288560,3,-0.77505004,9.949051,-0.22800002,1781203760137
2094288570,3,-0.69900006,9.91695,-0.19395001,1781203760147
2094288581,3,-0.70095,10.04895,-0.18,1781203760157
2094288591,3,-0.63195,10.18095,-0.16305001,1781203760167
2094288601,3,-0.63195,10.152,-0.12705001,1781203760177
2094288611,3,-0.59295005,10.08495,-0.156,1781203760187
2094288621,3,-0.56895,10.047001,-0.20805001,1781203760197
2094288631,3,-0.63195,10.03905,-0.25395,1781203760207
2094288641,3,-0.684,10.080001,-0.26805001,1781203760218
2094288651,3,-0.71505004,10.135051,-0.30195,1781203760228
2094288661,3,-0.79395,10.156951,-0.30195,1781203760237
2094288671,3,-0.79695004,10.17105,-0.33795002,1781203760248
2094288681,3,-0.768,10.209001,-0.30705002,1781203760261
2094288691,3,-0.72,10.233001,-0.34695002,1781203760268
2094288701,3,-0.67005,10.18605,-0.29895002,1781203760278
2094288712,3,-0.65805006,10.11795,-0.34500003,1781203760287
2094288722,3,-0.63405,10.06305,-0.333,1781203760297
2094288732,3,-0.63405,10.01805,-0.38595003,1781203760308
2094288742,3,-0.74595004,10.00605,-0.28005,1781203760318
2094288752,3,-0.69900006,10.032001,-0.31095,1781203760329
2094288762,3,-0.70305,10.02,-0.16305001,1781203760337
2094288772,3,-0.76095,9.96,-0.12195001,1781203760348
2094288782,3,-0.75105006,10.011001,-0.01905,1781203760358
2094288792,3,-0.70095,10.156951,-0.015000001,1781203760367
2094288802,3,-0.61695004,10.147051,-0.012,1781203760378
2094288812,3,-0.63195,9.9199505,-0.079050004,1781203760388
2094288822,3,-0.735,9.996,-0.12495001,1781203760398
2094288832,3,-0.69600004,10.19505,-0.096,1781203760408
2094288842,3,-0.77805007,10.141951,-0.14595,1781203760420
2094288853,3,-0.83505005,10.01805,-0.17505,1781203760428
2094288863,3,-0.84705,10.059,-0.27795002,1781203760439
2094288873,3,-0.79200006,9.988951,-0.21300001,1781203760449
2094288883,3,-0.81105006,9.7879505,-0.26295,1781203760459
2094288893,3,-0.90195006,10.06095,-0.26595002,1781203760469
2094288903,3,-0.744,10.321951,-0.21795002,1781203760479
2094288913,3,-0.74895006,10.233001,-0.097950004,1781203760490
2094288923,3,-0.73005,10.344001,0.07305,1781203760499
2094288933,3,-0.933,10.758,-0.036000002,1781203760509
2094288943,3,-0.92595005,10.129951,-0.055050004,1781203760521
2094288953,3,-1.0510501,9.802051,-0.47700003,1781203760530
2094288963,3,-1.11,9.91005,-0.55995005,1781203760539
2094288973,3,-1.074,10.071,-0.49605003,1781203760549
2094288984,3,-0.897,9.996,-0.31605002,1781203760559
2094288994,3,-0.72705,9.99405,-0.28500003,1781203760570
2094289004,3,-0.6,10.116,0.17400001,1781203760580
2094289014,3,-0.57900006,10.176001,0.19995001,1781203760590
2094289024,3,-0.71505004,9.87405,0.363,1781203760600
2094289034,3,-0.85695004,9.927,0.21705002,1781203760610
2094289044,3,-0.95505005,10.320001,0.171,1781203760620
2094289054,3,-1.11,10.50405,0.00405,1781203760630
2094289064,3,-1.1179501,10.36995,-0.01905,1781203760640
2094289074,3,-1.125,10.08495,-0.025950002,1781203760650
2094289084,3,-1.0170001,9.76395,0.006,1781203760660
2094289094,3,-0.91905004,9.91695,-0.01695,1781203760670
2094289104,3,-0.91200006,10.095,-0.003,1781203760681
2094289114,3,-0.82500005,9.951,-0.20805001,1781203760693
2094289125,3,-0.84705,10.03005,-0.17505,1781203760701
2094289135,3,-0.88305,10.33905,-0.120000005,1781203760711
2094289145,3,-0.83505005,10.267051,-0.097950004,1781203760721
2094289155,3,-0.75795,10.17105,-0.112950005,1781203760734
2094289165,3,-0.78000003,10.08705,-0.120000005,1781203760743
2094289175,3,-0.73905003,9.834001,-0.29895002,1781203760752
2094289185,3,-0.70605004,9.690001,-0.33795002,1781203760761
2094289195,3,-0.66705,9.74295,-0.50100005,1781203760771
2094289205,3,-0.85905004,9.92205,-0.32595003,1781203760782
2094289215,3,-0.99105006,10.083,-0.19905001,1781203760791
2094289225,3,-1.0720501,10.008,-0.0049500004,1781203760802
2094289235,3,-1.02195,9.939,0.25500003,1781203760812
2094289245,3,-0.92100006,9.834001,0.26505002,1781203760822
2094289255,3,-0.81795,9.618,0.16905001,1781203760833
2094289266,3,-0.79395,9.451051,0.058950003,1781203760843
2094289276,3,-0.85200006,9.132,0.123,1781203760852
2094289286,3,-0.75795,9.12495,0.21705002,1781203760862
2094289296,3,-0.78495,9.90795,0.46095002,1781203760872
2094289306,3,-0.65295005,10.252951,0.40800002,1781203760882
2094289316,3,-0.60795003,9.582001,0.42000002,1781203760892
2094289326,3,-0.65805006,9.108001,0.24795002,1781203760902
2094289336,3,-0.75105006,9.4480505,0.13305001,1781203760912
2094289346,3,-0.75600004,9.99195,-0.025950002,1781203760922
2094289356,3,-0.78000003,9.903001,-0.201,1781203760933
2094289366,3,-0.77295005,9.847951,-0.105000004,1781203760943
2094289376,3,-0.77805007,10.429951,-0.010050001,1781203760953
2094289386,3,-0.60795003,10.684051,0.0,1781203760963
2094289397,3,-0.42795002,10.33395,-0.00705,1781203760973
2094289407,3,-0.47805002,10.30305,-0.11505,1781203760983
2094289417,3,-0.43995002,10.51605,-0.27795002,1781203760992
2094289427,3,-0.37500003,10.593,-0.46695003,1781203761003
2094289437,3,-0.33705002,10.746,-0.74205005,1781203761013
2094289447,3,-0.351,11.12205,-1.113,1781203761023
2094289457,3,-0.411,11.007001,-1.212,1781203761033
2094289467,3,-0.42105,10.944,-1.52505,1781203761044
2094289477,3,-0.41595003,11.086051,-1.49205,1781203761053
2094289487,3,-0.24105,10.93305,-1.5780001,1781203761064
2094289497,3,-0.13095,10.609051,-1.59195,1781203761075
2094289507,3,-0.117000006,10.444051,-1.7770501,1781203761083
2094289517,3,-0.109950006,10.236,-1.8510001,1781203761094
2094289527,3,-0.13800001,10.011001,-1.9009501,1781203761103
2094289538,3,-0.23700002,9.798,-1.6380001,1781203761114
2094289548,3,-0.41595003,9.57495,-1.2,1781203761124
2094289558,3,-0.67695004,9.59895,-0.85200006,1781203761134
2094289568,3,-0.75795,9.774,-0.67095006,1781203761144
2094289578,3,-0.67905,9.817051,-0.68700004,1781203761154
2094289588,3,-0.588,9.604051,-0.65895003,1781203761164
2094289598,3,-0.55005,9.451051,-0.70605004,1781203761175
2094289608,3,-0.49695003,9.73095,-0.64905006,1781203761185
2094289618,3,-0.49695003,9.795,-0.52395004,1781203761196
2094289628,3,-0.43800002,9.441,-0.48600003,1781203761205
2094289638,3,-0.50505,9.654,-0.45000002,1781203761217
2094289648,3,-0.65805006,10.2310505,-0.60105,1781203761227
2094289658,3,-0.56895,9.964951,-0.75195,1781203761235
2094289669,3,-0.59295005,9.76395,-1.0030501,1781203761244
2094289679,3,-0.648,10.401,-1.06095,1781203761255
2094289689,3,-0.53595,10.52595,-1.02705,1781203761266
2094289699,3,-0.40905002,10.389001,-1.05795,1781203761275
2094289709,3,-0.49500003,10.67895,-1.07295,1781203761284
2094289719,3,-0.37995002,10.50195,-1.11105,1781203761295
2094289729,3,-0.46395,10.38405,-1.10895,1781203761304
2094289739,3,-0.768,10.1640005,-1.02495,1781203761314
2094289749,3,-0.98805004,10.177951,-0.9889501,1781203761326
2094289759,3,-0.984,10.777051,-0.83595,1781203761336
2094289769,3,-0.68700004,10.97595,-0.73005,1781203761346
2094289779,3,-0.39900002,10.05405,-0.56295,1781203761355
2094289789,3,-0.30795002,9.307051,-0.273,1781203761365
2094289799,3,-0.34695002,9.41205,-0.015000001,1781203761377
2094289810,3,-0.32295,9.25395,-0.14895001,1781203761386
2094289820,3,-0.58605003,8.871,-0.031050002,1781203761396
2094289830,3,-0.78000003,9.37395,0.018000001,1781203761406
2094289840,3,-0.82800007,9.89295,0.010950001,1781203761416
2094289850,3,-0.74895006,9.951,-0.079050004,1781203761426
2094289860,3,-0.67905,9.955951,-0.18705001,1781203761436
2094289870,3,-0.57900006,10.317,-0.27495003,1781203761446
2094289880,3,-0.51705,10.233001,-0.64695,1781203761456
2094289890,3,-0.59805006,9.88395,-1.1209501,1781203761466
2094289900,3,-0.79395,10.023001,-1.6159501,1781203761476
2094289910,3,-0.85905004,10.509001,-1.6900501,1781203761487
2094289920,3,-0.73905003,10.554001,-1.6810501,1781203761497
2094289930,3,-0.675,10.630951,-1.8769501,1781203761506
2094289941,3,-0.63195,10.51395,-1.5970501,1781203761517
2094289951,3,-0.74205005,10.444051,-1.79595,1781203761527
2094289961,3,-0.84705,10.19505,-1.386,1781203761537
2094289971,3,-0.88305,10.17405,-1.2210001,1781203761547
2094289981,3,-0.98100007,10.600051,-0.83295006,1781203761557
2094289991,3,-1.029,10.5730505,-0.63495004,1781203761567
2094290001,3,-1.1010001,10.285951,-0.52695,1781203761577
2094290011,3,-1.0030501,10.21695,-0.39495003,1781203761587
2094290021,3,-0.90405005,10.272,-0.333,1781203761597
2094290031,3,-0.85200006,9.8890505,-0.22005,1781203761608
2094290041,3,-1.09095,9.328051,-0.16800001,1781203761617
2094290051,3,-1.24695,9.71895,-0.38805002,1781203761627
2094290061,3,-1.23705,9.987,-0.42600003,1781203761638
2094290071,3,-1.218,9.771001,-0.558,1781203761648
2094290082,3,-1.1370001,9.621,-0.47700003,1781203761658
2094290092,3,-1.10595,9.484051,-0.60300004,1781203761668
2094290102,3,-1.0530001,9.337951,-0.66795003,1781203761678
2094290112,3,-0.98595005,9.357,-0.79305005,1781203761688
2094290122,3,-0.90000004,9.606001,-0.78495,1781203761698
2094290132,3,-0.65295005,9.714001,-0.78795004,1781203761708
2094290142,3,-0.54795,9.766951,-0.75195,1781203761719
2094290152,3,-0.60300004,9.826051,-0.83805007,1781203761729
2094290162,3,-0.73005,9.987,-0.90495,1781203761740
2094290172,3,-0.84495,10.126051,-0.99405,1781203761749
2094290182,3,-0.79200006,10.2310505,-1.06305,1781203761760
2094290192,3,-0.66705,10.159051,-1.10595,1781203761769
2094290202,3,-0.63405,10.13805,-1.07805,1781203761780
2094290213,3,-0.81600004,10.279051,-1.0699501,1781203761789
2094290223,3,-1.0030501,10.621051,-0.99405,1781203761799
2094290233,3,-1.01205,10.81995,-0.88095003,1781203761809
2094290243,3,-0.96195006,10.639951,-0.79995006,1781203761819
2094290253,3,-1.00995,10.47795,-0.795,1781203761831
2094290263,3,-1.0339501,10.485001,-0.80895007,1781203761839
2094290273,3,-1.0360501,10.200001,-0.93105006,1781203761850
2094290283,3,-1.029,10.0990505,-1.0849501,1781203761859
2094290293,3,-0.94305,10.332001,-1.1329501,1781203761869
2094290303,3,-1.09095,10.135051,-1.02705,1781203761880
2094290313,3,-1.0699501,10.068001,-1.1689501,1781203761890
2094290323,3,-1.0669501,10.1640005,-1.00995,1781203761900
2094290333,3,-1.04595,9.984,-1.0320001,1781203761910
2094290343,3,-1.0030501,9.769051,-0.984,1781203761920
2094290354,3,-0.984,9.70005,-1.0699501,1781203761930
2094290364,3,-0.97905004,9.597,-1.04595,1781203761940
2094290374,3,-0.82095003,9.65205,-1.056,1781203761950
2094290384,3,-0.51705,9.68505,-0.94095004,1781203761960
2094290394,3,-0.43005002,9.44295,-0.84000003,1781203761970
2094290404,3,-0.46905002,9.352051,-0.74505,1781203761980
2094290414,3,-0.55995005,9.4459505,-0.80505,1781203761990
2094290424,3,-0.69600004,9.549001,-0.87195003,1781203762000
2094290434,3,-0.80205005,9.769051,-0.89100003,1781203762010
2094290444,3,-0.76605004,10.05105,-0.73995006,1781203762021
2094290454,3,-0.69900006,10.03905,-0.66105,1781203762030
2094290464,3,-0.78195006,10.04205,-0.50295,1781203762041
2094290474,3,-0.76305,10.485001,-0.60105,1781203762051
2094290485,3,-0.708,10.20495,-0.59595,1781203762061
2094290495,3,-0.61005,9.90495,-0.72300005,1781203762073
2094290505,3,-0.59295005,9.811951,-0.85005003,1781203762081
2094290515,3,-0.60495,9.970051,-1.0819501,1781203762091
2094290525,3,-0.58095,10.212001,-1.21905,1781203762101
2094290535,3,-0.48795003,10.453951,-1.3410001,1781203762111
2094290545,3,-0.48600003,10.602,-1.4250001,1781203762121
2094290555,3,-0.40395,10.482,-1.6620001,1781203762132
2094290565,3,-0.26295,10.305,-1.76205,1781203762141
2094290575,3,-0.177,10.485001,-1.8600001,1781203762152
2094290585,3,-0.12195001,10.37895,-1.7860501,1781203762162
2094290595,3,-0.109950006,10.41495,-1.76205,1781203762171
2094290605,3,0.033,10.35105,-1.7359501,1781203762181
2094290615,3,0.24900001,10.078051,-1.7550001,1781203762191
2094290626,3,0.28395,9.490951,-1.76205,1781203762201
2094290636,3,0.18405001,9.35505,-1.7479501,1781203762212
2094290646,3,-0.14295001,9.964951,-1.6860001,1781203762222
2094290656,3,-0.56895,10.257001,-1.35,1781203762232
2094290666,3,-0.768,10.281,-1.38405,1781203762241
2094290676,3,-0.66705,10.176001,-1.437,1781203762252
2094290686,3,-0.555,9.89595,-1.743,1781203762262
2094290696,3,-0.42105,10.066051,-1.6999501,1781203762273
2094290706,3,-0.354,10.090051,-1.60395,1781203762283
2094290716,3,-0.47595003,10.33605,-1.674,1781203762292
2094290726,3,-0.55695003,10.375051,-1.7119501,1781203762302
2094290736,3,-0.55305004,10.18095,-1.9729501,1781203762312
2094290746,3,-0.57600003,9.931951,-1.9039501,1781203762323
2094290757,3,-0.6,9.964951,-1.8010501,1781203762333
2094290767,3,-0.57900006,9.982051,-1.6470001,1781203762343
2094290777,3,-0.49500003,10.269,-1.45095,1781203762353
2094290787,3,-0.37305,10.533001,-1.3600501,1781203762363
2094290797,3,-0.19095,10.417951,-1.197,1781203762373
2094290807,3,-0.10695001,10.147051,-1.09905,1781203762383
2094290817,3,-0.025950002,10.615951,-1.2790501,1781203762393
2094290827,3,0.08805001,10.257001,-0.84000003,1781203762403
2094290837,3,0.105000004,9.40305,-0.82095003,1781203762413
2094290847,3,0.009000001,9.160951,-0.74700004,1781203762423
2094290857,3,-0.25995,9.526951,-0.81705004,1781203762433
2094290867,3,-0.47400004,9.522,-0.87195003,1781203762443
2094290877,3,-0.63405,9.802051,-0.97005004,1781203762454
2094290887,3,-0.53295004,10.147051,-0.75405,1781203762464
2094290898,3,-0.29595003,9.90795,-0.88605005,1781203762474
2094290908,3,-0.36105,9.357,-0.81705004,1781203762484
2094290918,3,-0.59295005,9.21105,-1.1880001,1781203762494
2094290928,3,-0.94995004,9.850051,-1.245,1781203762504
2094290938,3,-1.2349501,10.423051,-1.31505,1781203762514
2094290948,3,-1.2919501,10.312051,-1.2430501,1781203762524
2094290958,3,-1.146,10.068001,-1.2210001,1781203762534
2094290968,3,-0.93600005,9.826051,-1.0849501,1781203762544
2094290978,3,-0.74205005,9.51,-1.128,1781203762554
2094290988,3,-0.64095,9.90795,-1.28295,1781203762564
2094290998,3,-0.591,10.585051,-1.07805,1781203762575
2094291008,3,-0.507,10.5709505,-0.9889501,1781203762584
2094291018,3,-0.651,10.564051,-0.9990001,1781203762594
2094291029,3,-0.76095,10.432051,-1.2280501,1781203762605
2094291039,3,-0.8880001,10.726951,-1.4130001,1781203762615
2094291049,3,-0.897,9.925051,-1.5679501,1781203762625
2094291059,3,-0.96195006,10.554001,-1.6500001,1781203762635
2094291069,3,-0.82095003,11.34405,-1.09905,1781203762645
2094291079,3,-0.52095,9.711,-1.3960501,1781203762655
2094291089,3,-0.84195006,10.609051,-1.5850501,1781203762666
2094291099,3,-0.83295006,11.136001,-1.4650501,1781203762675
2094291109,3,-0.79905003,9.51,-1.7689501,1781203762686
2094291119,3,-1.26405,9.670951,-1.7770501,1781203762696
2094291129,3,-1.28505,10.435051,-1.695,1781203762705
2094291139,3,-1.08405,10.008,-1.64505,1781203762715
2094291149,3,-1.0720501,9.955951,-1.44105,1781203762728
2094291159,3,-0.97905004,9.811951,-0.97905004,1781203762735
2094291170,3,-0.84195006,9.460051,-0.93600005,1781203762747
2094291180,3,-0.90405005,9.68805,-0.67800003,1781203762757
2094291190,3,-0.77295005,9.913051,-0.75000006,1781203762766
2094291200,3,-0.933,9.357,-0.28695002,1781203762776
2094291210,3,-0.9979501,9.501,-0.43605003,1781203762786
2094291220,3,-1.09095,9.585,-0.51195,1781203762796
2094291230,3,-1.08405,9.85995,-0.90000004,1781203762806
2094291240,3,-1.01505,10.18605,-0.89295006,1781203762817
2094291250,3,-0.86895007,9.958051,-1.22595,1781203762829
2094291260,3,-0.81105006,10.441951,-1.2090001,1781203762837
2094291270,3,-0.79395,10.147051,-1.4290501,1781203762847
2094291280,3,-0.72705,10.144951,-1.6980001,1781203762857
2094291290,3,-0.72705,10.281,-1.7020501,1781203762867
2094291300,3,-0.744,10.071,-1.6110001,1781203762877
2094291311,3,-0.70305,10.104,-1.64295,1781203762887
2094291321,3,-0.60300004,10.123051,-1.5679501,1781203762897
2094291331,3,-0.56505,10.20495,-1.4320501,1781203762907
2094291341,3,-0.51195,9.9199505,-1.35,1781203762917
2094291351,3,-0.57600003,10.20195,-1.28295,1781203762927
2094291361,3,-0.56700003,10.308001,-1.18005,1781203762939
2094291371,3,-0.55695003,10.126051,-1.09695,1781203762948
2094291381,3,-0.70305,9.82905,-0.84000003,1781203762958
2094291391,3,-0.75105006,9.8550005,-0.74205005,1781203762971
2094291401,3,-0.624,10.20195,-0.63900006,1781203762981
2094291411,3,-0.49005002,9.73095,-0.69705003,1781203762987
2094291421,3,-0.61695004,9.606001,-0.81705004,1781203762998
2094291431,3,-0.34395,9.60105,-0.83805007,1781203763007
2094291442,3,-0.186,9.324,-1.07295,1781203763017
2094291452,3,-0.462,9.618,-1.0489501,1781203763031
2094291462,3,-0.66495,9.661051,-0.88095003,1781203763038
2094291472,3,-0.66705,9.469951,-0.771,1781203763049
2094291482,3,-0.62205005,9.40005,-0.51195,1781203763059
2094291492,3,-0.74205005,10.18095,-0.34500003,1781203763067
2094291502,3,-0.507,10.695001,-0.40695003,1781203763078
2094291512,3,-0.39000002,10.177951,-0.45000002,1781203763088
2094291522,3,-0.43005002,9.484051,-0.64395005,1781203763098
2094291532,3,-0.54795,9.68805,-0.915,1781203763109
2094291542,3,-0.651,9.979951,-1.2040501,1781203763118
2094291552,3,-0.75795,10.1640005,-1.2930001,1781203763129
2094291562,3,-1.0189501,10.41495,-1.18305,1781203763139
2094291572,3,-1.0669501,10.67895,-1.3050001,1781203763149
2094291583,3,-0.87105006,11.02095,-1.4080501,1781203763159
2094291593,3,-0.55305004,10.818001,-1.626,1781203763169
2094291603,3,-0.23895001,10.17105,-1.8720001,1781203763179
2094291613,3,0.031050002,9.8890505,-2.0350502,1781203763189
2094291623,3,0.23205002,9.999001,-2.253,1781203763199
2094291633,3,0.37800002,9.868951,-2.2030501,1781203763209
2094291643,3,0.40395,10.19505,-2.11395,1781203763220
2094291653,3,0.39705002,9.963,-2.0329502,1781203763229
2094291663,3,0.34695002,9.70695,-2.0059502,1781203763239
2094291673,3,0.165,9.328051,-1.9660501,1781203763250
2094291683,3,0.045,9.51,-2.05695,1781203763259
2094291693,3,-0.064050004,10.03905,-1.8870001,1781203763270
2094291703,3,-0.11400001,9.795,-1.79805,1781203763279
2094291714,3,-0.201,9.73995,-1.8169501,1781203763289
2094291724,3,-0.162,10.144951,-1.8460501,1781203763300
2094291734,3,-0.11895001,10.399051,-2.00895,1781203763309
2094291744,3,-0.21300001,10.188001,-2.0760002,1781203763319
2094291754,3,-0.42600003,9.964951,-2.1790502,1781203763330
2094291764,3,-0.46395,9.943951,-2.2459502,1781203763340
2094291774,3,-0.40695003,10.435051,-2.1790502,1781203763350
2094291784,3,-0.18405001,10.64295,-1.9800001,1781203763362
2094291794,3,-0.13800001,10.413,-2.01405,1781203763370
2094291804,3,-0.21000001,10.39095,-2.1049502,1781203763380
2094291814,3,-0.22200002,10.5709505,-2.124,1781203763390
2094291824,3,-0.25800002,10.593,-2.16195,1781203763401
2094291834,3,-0.39705002,10.417951,-2.1019502,1781203763410
2094291844,3,-0.39900002,10.32705,-2.112,1781203763421
2094291855,3,-0.39000002,10.03695,-2.0659502,1781203763432
2094291865,3,-0.41400003,9.987,-2.0740502,1781203763441
2094291875,3,-0.39705002,10.276951,-1.8750001,1781203763451
2094291885,3,-0.34695002,10.23795,-1.8409501,1781203763461
2094291895,3,-0.423,9.819,-1.674,1781203763472
2094291905,3,-0.49695003,9.573001,-1.5469501,1781203763481
2094291915,3,-0.47595003,9.68805,-1.50405,1781203763491
2094291925,3,-0.47805002,9.867001,-1.3600501,1781203763501
2094291935,3,-0.43800002,10.23795,-1.4940001,1781203763512
2094291945,3,-0.531,9.903001,-1.19505,1781203763521
2094291955,3,-0.73695004,9.609,-1.30005,1781203763531
2094291965,3,-0.88095003,9.925051,-1.1370001,1781203763541
2094291975,3,-0.78705,9.951,-1.3099501,1781203763551
2094291986,3,-0.67200005,10.07505,-1.3480501,1781203763562
2094291996,3,-0.45900002,10.083,-1.5109501,1781203763572
2094292006,3,-0.18405001,10.01595,-1.59195,1781203763582
2094292016,3,0.0,9.970051,-1.3960501,1781203763592
2094292026,3,-0.26295,9.628051,-1.4269501,1781203763602
2094292036,3,-0.58395004,9.778951,-1.60395,1781203763612
2094292046,3,-0.97395,9.843,-1.8169501,1781203763622
2094292056,3,-0.99105006,9.891001,-1.9540501,1781203763632
2094292066,3,-0.37800002,10.11795,-1.8010501,1781203763642
2094292076,3,-0.32295,10.21905,-1.59,1781203763652
2094292086,3,-0.24405001,10.2289505,-1.38195,1781203763662
2094292096,3,-0.24105,10.34805,-1.3099501,1781203763672
2094292106,3,-0.39705002,10.272,-1.269,1781203763682
2094292116,3,-0.61995006,10.0990505,-1.53495,1781203763694
2094292127,3,-1.06005,9.972,-1.8649501,1781203763703
2094292137,3,-1.194,9.92895,-1.9729501,1781203763715
2094292147,3,-1.21095,9.814051,-1.8220501,1781203763724
2094292157,3,-1.07895,10.144951,-1.5300001,1781203763734
2094292167,3,-0.76095,10.147051,-1.2859501,1781203763747
2094292177,3,-0.67005,9.925051,-1.41795,1781203763752
2094292187,3,-0.76305,9.915001,-1.3120501,1781203763762
2094292197,3,-0.83295006,9.690001,-1.60905,1781203763773
2094292207,3,-0.95205003,9.778951,-1.8079501,1781203763783
2094292217,3,-0.99495006,9.819,-1.7689501,1781203763794
2094292227,3,-1.1029501,9.67605,-1.7260501,1781203763803
2094292237,3,-1.0530001,10.108951,-1.6519501,1781203763813
2094292247,3,-1.0339501,10.2960005,-1.4989501,1781203763823
2094292258,3,-0.97905004,10.141951,-1.44105,1781203763834
2094292268,3,-0.9670501,10.071,-1.2930001,1781203763843
2094292278,3,-0.84000003,9.92895,-1.25205,1781203763854
2094292288,3,-0.66705,9.91695,-1.2430501,1781203763864
2094292298,3,-0.79905003,10.114051,-1.2739501,1781203763874
2094292308,3,-0.82305,10.16895,-1.3549501,1781203763884
2094292318,3,-0.873,10.252951,-1.5319501,1781203763894
2094292328,3,-0.84000003,10.18095,-1.6020001,1781203763904
2094292338,3,-0.77805007,10.06305,-1.6380001,1781203763914
2094292348,3,-0.66,9.891001,-1.6330501,1781203763924
2094292358,3,-0.19305001,9.429001,-1.5780001,1781203763934
2094292368,3,-0.033,9.313951,-1.6810501,1781203763944
2094292378,3,-0.093,9.319051,-1.5589501,1781203763955
2094292388,3,-0.37305,9.295051,-1.695,1781203763965
2094292399,3,-0.63195,9.73305,-1.8769501,1781203763975
2094292409,3,-0.62700003,10.39095,-1.9780501,1781203763985
2094292419,3,-0.48105,10.65705,-2.112,1781203763995
2094292429,3,-0.30600002,10.156951,-2.3779502,1781203764005
2094292439,3,-0.057000004,9.7900505,-2.526,1781203764015
2094292449,3,0.07095,10.03695,-2.5450501,1781203764026
2094292459,3,0.11400001,10.107,-2.42805,1781203764035
2094292469,3,-0.021000002,10.255051,-2.229,1781203764045
2094292479,3,-0.354,9.7900505,-1.9560001,1781203764055
2094292489,3,-0.45195,9.843,-2.0400002,1781203764066
2094292499,3,-0.39195,10.435051,-1.8460501,1781203764076
2094292509,3,-0.294,10.48995,-1.6999501,1781203764086
2094292519,3,-0.21300001,10.473001,-1.6830001,1781203764096
2094292530,3,-0.162,10.300051,-1.6860001,1781203764106
2094292540,3,-0.109950006,9.89805,-1.8889501,1781203764116
2094292550,3,-0.21300001,10.07295,-1.9369501,1781203764126
2094292560,3,-0.16905001,10.272,-1.8169501,1781203764136
2094292570,3,-0.07095,10.236,-1.659,1781203764146
2094292580,3,-0.17400001,10.341001,-1.6140001,1781203764156
2094292590,3,-0.31800002,10.071,-1.4650501,1781203764166
2094292600,3,-0.46395,10.23795,-1.4770501,1781203764176
2094292610,3,-0.69900006,10.435051,-1.3270501,1781203764186
2094292620,3,-0.63900006,9.963,-1.50405,1781203764196
2094292630,3,-0.58395004,9.496051,-1.7050501,1781203764206
2094292640,3,-0.56700003,9.130051,-1.9470001,1781203764217
2094292650,3,-0.67200005,9.526951,-1.9660501,1781203764226
2094292660,3,-0.75105006,10.2619505,-1.8960001,1781203764237
2094292671,3,-0.615,9.99195,-1.7890501,1781203764246
2094292681,3,-0.768,9.640051,-1.8700501,1781203764258
2094292691,3,-0.84195006,10.06305,-1.81305,1781203764267
2094292701,3,-0.50505,9.61095,-1.8600001,1781203764277
2094292711,3,-0.47805002,9.199051,-1.9729501,1781203764288
2094292721,3,-0.71505004,9.453,-1.8919501,1781203764297
2094292731,3,-0.76995003,9.850051,-1.8940501,1781203764307
2094292741,3,-0.74895006,10.38405,-1.64295,1781203764318
2094292751,3,-0.51705,10.59,-1.6639501,1781203764327
2094292761,3,-0.411,10.588051,-1.44105,1781203764337
2094292771,3,-0.39705002,10.71195,-1.422,1781203764347
2094292781,3,-0.39195,10.458,-1.5679501,1781203764357
2094292791,3,-0.38505003,9.96,-1.9750501,1781203764368
2094292802,3,-0.531,9.72105,-2.4450002,1781203764378
2094292812,3,-0.71295005,10.04205,-2.5140002,1781203764388
2094292822,3,-0.75795,10.126051,-2.1330001,1781203764398
2094292832,3,-0.864,10.329,-1.9630501,1781203764408
2094292842,3,-0.82995003,10.566001,-1.48695,1781203764418
2094292852,3,-0.73005,10.272,-1.4269501,1781203764428
2094292862,3,-0.66300005,9.843,-1.4970001,1781203764438
2094292872,3,-0.56895,9.850051,-1.7910001,1781203764448
2094292882,3,-0.52905005,10.056001,-2.0059502,1781203764458
2094292892,3,-0.483,10.243051,-1.7740501,1781203764468
2094292902,3,-0.48600003,10.2310505,-1.53495,1781203764478
2094292912,3,-0.57600003,9.835951,-1.5280501,1781203764489
2094292922,3,-0.708,9.525001,-1.79295,1781203764498
2094292932,3,-0.708,9.769051,-1.81305,1781203764508
2094292943,3,-0.46905002,9.7900505,-1.8010501,1781203764519
2094292953,3,-0.052050002,9.73095,-1.7890501,1781203764529
2094292963,3,-0.11400001,9.979951,-1.7530501,1781203764539
2094292973,3,-0.34395,10.26,-1.8270001,1781203764549
2094292983,3,-0.70305,10.474951,-2.15295,1781203764559
2094292993,3,-1.05495,10.518001,-2.5120502,1781203764569
2094293003,3,-1.14405,9.99195,-2.50005,1781203764579
2094293013,3,-1.0000501,9.606001,-2.232,1781203764589
2094293023,3,-0.73200005,9.85995,-1.7860501,1781203764599
2094293033,3,-0.41595003,10.126051,-1.7410501,1781203764609
2094293043,3,-0.43995002,10.02795,-1.50405,1781203764619
2094293053,3,-0.56700003,10.06305,-1.4629501,1781203764629
2094293063,3,-0.75795,9.88395,-1.5870001,1781203764640
2094293074,3,-0.91905004,9.61305,-1.695,1781203764650
2094293084,3,-0.96195006,9.72105,-1.87995,1781203764660
2094293094,3,-0.91200006,9.838051,-1.815,1781203764670
2094293104,3,-0.86595005,9.472051,-1.8079501,1781203764680
2094293114,3,-0.84000003,9.508051,-1.7220001,1781203764690
2094293124,3,-0.82800007,9.86205,-1.4320501,1781203764700
2094293134,3,-0.56505,9.999001,-1.31505,1781203764710
2094293144,3,-0.50205004,9.826051,-1.281,1781203764719
2094293154,3,-0.62700003,9.561001,-1.52505,1781203764730
2094293164,3,-0.675,9.52005,-1.7500501,1781203764741
2094293174,3,-0.66705,9.89295,-1.9150501,1781203764751
2094293184,3,-0.64395005,10.353001,-2.00895,1781203764762
2094293194,3,-0.62205005,10.41495,-2.00895,1781203764771
2094293204,3,-0.63600004,10.224001,-2.08305,1781203764782
2094293215,3,-0.66,10.000951,-2.08305,1781203764791
2094293225,3,-0.43500003,9.679951,-2.07795,1781203764804
2094293235,3,-0.24105,9.501,-1.9470001,1781203764813
2094293245,3,-0.17895001,9.913051,-1.6860001,1781203764822
2094293255,3,-0.294,10.2960005,-1.4320501,1781203764831
2094293265,3,-0.52605003,10.20195,-1.44105,1781203764841
2094293275,3,-0.62895006,10.06305,-1.554,1781203764852
2094293285,3,-0.73905003,10.047001,-1.8199501,1781203764861
2094293295,3,-0.711,10.02,-1.9369501,1781203764872
2094293305,3,-0.66,10.00605,-1.9920001,1781203764881
2094293315,3,-0.44505003,10.071,-2.1090002,1781203764892
2094293325,3,-0.28695002,10.212001,-2.1070502,1781203764902
2094293335,3,-0.32295,10.096951,-2.2440002,1781203764911
2094293345,3,-0.34695002,9.927,-2.4780002,1781203764922
2094293356,3,-0.34695002,9.67605,-2.63895,1781203764932
2094293366,3,-0.39900002,9.73095,-2.943,1781203764942
2094293376,3,-0.35595003,10.044001,-3.216,1781203764953
2094293386,3,-0.21705002,10.291051,-3.1890001,1781203764962
2094293396,3,-0.117000006,10.135051,-3.0649502,1781203764972
2094293406,3,-0.27195,10.200001,-2.8489501,1781203764982
2094293416,3,-0.24105,10.11795,-2.8560002,1781203764992
2094293426,3,-0.17205001,10.090051,-2.76495,1781203765003
2094293436,3,-0.17400001,10.35105,-2.5930502,1781203765012
2094293446,3,-0.246,10.321951,-2.49,1781203765024
2094293456,3,-0.36105,9.931951,-2.361,1781203765033
2094293466,3,-0.50505,9.807,-2.25795,1781203765043
2094293476,3,-0.69105005,10.095,-2.07795,1781203765053
2094293487,3,-0.66705,10.312051,-2.04495,1781203765063
2094293497,3,-0.65295005,10.36305,-2.0760002,1781203765073
2094293507,3,-0.46605003,10.120951,-2.301,1781203765085
2094293517,3,-0.62700003,10.08495,-2.6100001,1781203765093
2094293527,3,-0.66705,9.976951,-2.80395,1781203765103
2094293537,3,-0.66705,10.05105,-2.7940502,1781203765113
2094293547,3,-0.54300004,10.05405,-2.69805,1781203765123
2094293557,3,-0.6,9.74295,-2.5069501,1781203765133
2094293567,3,-0.70305,9.42405,-2.5240502,1781203765143
2094293577,3,-0.69405,9.43095,-2.4090002,1781203765153
2094293587,3,-0.68205005,9.42405,-2.289,1781203765164
2094293597,3,-0.68700004,9.261001,-2.2099502,1781203765173
2094293607,3,-0.75405,9.44295,-2.1760502,1781203765184
2094293617,3,-0.84900004,9.778951,-2.1760502,1781203765193
2094293628,3,-0.82095003,9.754951,-2.3080502,1781203765204
2094293638,3,-0.73905003,9.7900505,-2.433,1781203765214
2094293648,3,-0.675,9.754951,-2.4709501,1781203765226
2094293658,3,-0.72705,9.51,-2.5120502,1781203765234
2094293668,3,-0.86595005,9.68295,-2.6239502,1781203765245
2094293678,3,-0.99300003,9.71895,-2.60295,1781203765255
2094293688,3,-1.0860001,9.609,-2.6239502,1781203765267
2094293698,3,-1.161,9.903001,-2.5879502,1781203765275
2094293708,3,-1.1389501,10.26,-2.4060001,1781203765284
2094293718,3,-1.2040501,10.518001,-2.1790502,1781203765295
2094293728,3,-1.2090001,10.66695,-2.028,1781203765304
2094293738,3,-1.16295,10.50405,-1.8100501,1781203765314
2094293748,3,-0.84495,10.31505,-1.5949501,1781203765326
2094293759,3,-0.67905,11.023951,-1.34595,1781203765334
2094293769,3,-0.70605004,11.074051,-1.17795,1781203765344
2094293779,3,-0.66705,10.252951,-1.5300001,1781203765355
2094293789,3,-0.77505004,9.90495,-2.1360002,1781203765365
2094293799,3,-0.99300003,10.068001,-2.3700001,1781203765376
2094293809,3,-0.94005007,10.008,-2.3130002,1781203765385
2094293819,3,-0.77805007,10.221001,-2.361,1781203765396
2094293829,3,-0.29895002,10.68795,-2.3749502,1781203765405
2094293839,3,0.19800001,10.34595,-2.2480502,1781203765415
2094293849,3,0.294,9.9199505,-2.2840502,1781203765425
2094293859,3,-0.10005,9.393001,-2.56395,1781203765436
2094293869,3,-0.94995004,9.23505,-2.77305,1781203765446
2094293879,3,-1.08405,9.592051,-2.9520001,1781203765455
2094293889,3,-1.3230001,10.33905,-3.0289502,1781203765465
2094293900,3,-1.5270001,9.934051,-2.50395,1781203765476
2094293910,3,-1.4460001,9.429001,-2.334,1781203765486
2094293920,3,-0.91905004,9.228001,-2.229,1781203765496
2094293930,3,-0.72300005,9.1369505,-2.4780002,1781203765507
2094293940,3,-0.73005,8.802,-2.4810002,1781203765516
2094293950,3,-0.71295005,8.863951,-2.53095,1781203765526
2094293960,3,-0.73905003,9.4789505,-2.26005,1781203765537
2094293970,3,-0.804,9.678,-2.20005,1781203765546
