icm4n607_acc,iven_sense,2026-06-10_23-21-52.699_Active 10 Pro
imuTimestamp,accuracy(more=better),acc_x[m/s^2],acc_y[m/s^2],acc_z[m/s^2],utcTimestamp(millis)
2013444323,3,-0.39705002,4.61205,8.814,1781122915900
2013444333,3,-0.38295,4.6260004,8.809951,1781122915910
2013444343,3,-0.37305,4.62405,8.806951,1781122915920
2013444353,3,-0.38505003,4.6189504,8.802,1781122915930
2013444363,3,-0.36105,4.62405,8.812051,1781122915940
2013444374,3,-0.37095,4.629,8.818951,1781122915950
2013444384,3,-0.38505003,4.6309505,8.86005,1781122915960
2013444394,3,-0.39900002,4.6210504,8.857051,1781122915970
2013444404,3,-0.38295,4.6260004,8.86005,1781122915980
2013444414,3,-0.37995002,4.638,8.85495,1781122915990
2013444424,3,-0.37500003,4.62405,8.862,1781122916000
2013444434,3,-0.37995002,4.6140003,8.853001,1781122916010
2013444444,3,-0.38700002,4.59705,8.817,1781122916021
2013444454,3,-0.39000002,4.5810003,8.821051,1781122916030
2013444464,3,-0.37305,4.58505,8.818951,1781122916040
2013444474,3,-0.39000002,4.605,8.818951,1781122916050
2013444484,3,-0.402,4.617,8.830951,1781122916060
2013444494,3,-0.39705002,4.6189504,8.84805,1781122916070
2013444504,3,-0.402,4.617,8.829,1781122916080
2013444515,3,-0.39000002,4.59705,8.826,1781122916091
2013444525,3,-0.38505003,4.6069503,8.802,1781122916100
2013444535,3,-0.39495003,4.62405,8.781,1781122916111
2013444545,3,-0.40395,4.6600504,8.72805,1781122916122
2013444555,3,-0.41400003,4.6909504,8.71905,1781122916133
2013444565,3,-0.39900002,4.71,8.68995,1781122916142
2013444575,3,-0.37500003,4.6740003,8.70405,1781122916152
2013444585,3,-0.35595003,4.6260004,8.733001,1781122916163
2013444595,3,-0.36795002,4.6309505,8.71905,1781122916173
2013444605,3,-0.37095,4.6480503,8.70705,1781122916182
2013444615,3,-0.39705002,4.64295,8.673,1781122916194
2013444625,3,-0.40905002,4.66695,8.677951,1781122916203
2013444635,3,-0.41805002,4.6810503,8.677951,1781122916214
2013444645,3,-0.423,4.6860003,8.710951,1781122916224
2013444656,3,-0.40695003,4.64295,8.7640505,1781122916235
2013444666,3,-0.39000002,4.59705,8.793,1781122916244
2013444676,3,-0.39705002,4.59495,8.802,1781122916255
2013444686,3,-0.402,4.6000504,8.812051,1781122916264
2013444696,3,-0.41400003,4.59495,8.812051,1781122916275
2013444706,3,-0.39705002,4.61205,8.7949505,1781122916284
2013444716,3,-0.39495003,4.6069503,8.74005,1781122916294
2013444726,3,-0.37305,4.59495,8.71395,1781122916305
2013444736,3,-0.36600003,4.578,8.69505,1781122916314
2013444746,3,-0.36600003,4.6069503,8.677951,1781122916325
2013444756,3,-0.36795002,4.6069503,8.698951,1781122916334
2013444766,3,-0.37800002,4.605,8.69205,1781122916344
2013444776,3,-0.41595003,4.62405,8.68995,1781122916355
2013444787,3,-0.41595003,4.6090503,8.68995,1781122916364
2013444797,3,-0.41805002,4.6000504,8.685,1781122916374
2013444807,3,-0.411,4.6210504,8.71395,1781122916385
2013444817,3,-0.41400003,4.6260004,8.68995,1781122916394
2013444827,3,-0.41805002,4.6480503,8.686951,1781122916404
2013444837,3,-0.43500003,4.67205,8.665951,1781122916414
2013444847,3,-0.42105,4.6930504,8.677951,1781122916424
2013444857,3,-0.42600003,4.6980004,8.70705,1781122916434
2013444867,3,-0.402,4.6930504,8.74005,1781122916444
2013444877,3,-0.39000002,4.6740003,8.75895,1781122916456
2013444887,3,-0.38505003,4.68405,8.74995,1781122916464
2013444897,3,-0.37995002,4.662,8.73495,1781122916474
2013444907,3,-0.39195,4.66905,8.742001,1781122916485
2013444917,3,-0.41400003,4.69605,8.73795,1781122916495
2013444928,3,-0.43305,4.7080503,8.773951,1781122916505
2013444938,3,-0.42105,4.70505,8.809951,1781122916514
2013444948,3,-0.40905002,4.69995,8.841001,1781122916524
2013444958,3,-0.41595003,4.7119503,8.853001,1781122916536
2013444968,3,-0.411,4.71495,8.87205,1781122916545
2013444978,3,-0.423,4.722,8.889001,1781122916555
2013444988,3,-0.43305,4.7320504,8.901,1781122916565
2013444998,3,-0.42795002,4.72905,8.88405,1781122916575
2013445008,3,-0.45405003,4.7389503,8.86005,1781122916584
2013445018,3,-0.46395,4.7320504,8.809951,1781122916595
2013445028,3,-0.45000002,4.7200503,8.800051,1781122916605
2013445038,3,-0.44505003,4.72695,8.814,1781122916616
2013445048,3,-0.43995002,4.7200503,8.805,1781122916627
2013445058,3,-0.43995002,4.72695,8.806951,1781122916636
2013445069,3,-0.45195,4.71705,8.814,1781122916646
2013445079,3,-0.43500003,4.6860003,8.788051,1781122916656
2013445089,3,-0.42795002,4.67595,8.7640505,1781122916666
2013445099,3,-0.40695003,4.7239504,8.733001,1781122916677
2013445109,3,-0.39705002,4.7320504,8.73495,1781122916686
2013445119,3,-0.38295,4.722,8.788051,1781122916697
2013445129,3,-0.36795002,4.69605,8.838,1781122916707
2013445139,3,-0.34695002,4.67595,8.833051,1781122916717
2013445149,3,-0.34905002,4.6810503,8.817,1781122916727
2013445159,3,-0.363,4.6930504,8.785951,1781122916735
2013445169,3,-0.39195,4.71,8.7640505,1781122916747
2013445179,3,-0.41595003,4.7320504,8.773951,1781122916757
2013445189,3,-0.40905002,4.7239504,8.776051,1781122916770
2013445200,3,-0.36600003,4.6930504,8.776051,1781122916778
2013445210,3,-0.354,4.6810503,8.7310505,1781122916787
2013445220,3,-0.36105,4.7080503,8.680051,1781122916798
2013445230,3,-0.36795002,4.7080503,8.649,1781122916808
2013445240,3,-0.37095,4.6909504,8.674951,1781122916818
2013445250,3,-0.36795002,4.66905,8.68305,1781122916829
2013445260,3,-0.354,4.65705,8.69205,1781122916838
2013445270,3,-0.33195,4.6309505,8.635051,1781122916848
2013445280,3,-0.31800002,4.6090503,8.580001,1781122916858
2013445290,3,-0.32700002,4.617,8.51295,1781122916868
2013445300,3,-0.37095,4.64295,8.479051,1781122916879
2013445310,3,-0.38295,4.6480503,8.48595,1781122916888
2013445320,3,-0.39495003,4.6189504,8.54895,1781122916898
2013445330,3,-0.37995002,4.59705,8.592,1781122916908
2013445341,3,-0.363,4.578,8.601001,1781122916918
2013445351,3,-0.33,4.5739503,8.577001,1781122916929
2013445361,3,-0.30105,4.53795,8.53905,1781122916938
2013445371,3,-0.28695002,4.49205,8.493,1781122916949
2013445381,3,-0.28905,4.4560504,8.44095,1781122916959
2013445391,3,-0.30105,4.4370003,8.412001,1781122916969
2013445401,3,-0.30405003,4.425,8.371051,1781122916979
2013445411,3,-0.28005,4.39395,8.35005,1781122916989
2013445421,3,-0.27495003,4.353,8.316,1781122917000
2013445431,3,-0.23895001,4.30095,8.29695,1781122917009
2013445441,3,-0.22500001,4.2840004,8.2560005,1781122917019
2013445451,3,-0.21300001,4.27395,8.20605,1781122917030
2013445461,3,-0.165,4.2049503,8.137051,1781122917040
2013445472,3,-0.141,4.16895,7.9909506,1781122917048
2013445482,3,-0.13800001,4.143,7.8420005,1781122917060
2013445492,3,-0.14295001,4.09005,7.7110505,1781122917069
2013445502,3,-0.12900001,3.9750001,7.5600004,1781122917080
2013445512,3,-0.105000004,3.8460002,7.38495,1781122917089
2013445522,3,-0.124050006,3.69195,7.18905,1781122917100
2013445532,3,-0.15495001,3.55095,6.9679503,1781122917110
2013445542,3,-0.22200002,3.38805,6.6859503,1781122917120
2013445552,3,-0.33195,3.21405,6.3769503,1781122917131
2013445562,3,-0.40695003,2.9860501,6.0490503,1781122917140
2013445572,3,-0.42600003,2.907,5.589,1781122917150
2013445582,3,-0.28005,2.8830001,5.5270505,1781122917160
2013445592,3,-0.17895001,2.8519502,5.4360003,1781122917170
2013445602,3,-0.049950004,2.7589502,5.3710504,1781122917181
2013445613,3,0.0139500005,2.6890502,5.34,1781122917190
2013445623,3,-0.03795,2.88105,5.4220505,1781122917201
2013445633,3,-0.15495001,3.1230001,5.5680003,1781122917211
2013445643,3,-0.18405001,3.18495,5.88105,1781122917221
2013445653,3,-0.24405001,3.252,5.9869504,1781122917230
2013445663,3,-0.33900002,3.25395,6.32205,1781122917241
2013445673,3,-0.42795002,3.108,7.1340003,1781122917251
2013445683,3,-0.61200005,2.83095,8.08605,1781122917261
2013445693,3,-0.90705,2.7280502,9.066,1781122917270
2013445703,3,-1.338,2.73705,10.299001,1781122917281
2013445713,3,-1.8330001,2.70405,11.826,1781122917290
2013445723,3,-2.3149502,2.69895,13.533001,1781122917300
2013445733,3,-2.73405,2.6560502,15.657001,1781122917310
2013445743,3,-3.04005,2.778,17.83605,1781122917320
2013445754,3,-3.21495,2.7180002,19.38705,1781122917330
2013445764,3,-3.4810503,2.6200502,19.855951,1781122917341
2013445774,3,-3.7440002,2.5150502,20.022001,1781122917350
2013445784,3,-3.9379501,2.28195,20.046001,1781122917360
2013445794,3,-4.02705,1.8900001,20.218052,1781122917371
2013445804,3,-4.0360503,1.626,20.272951,1781122917381
2013445814,3,-3.9880502,1.5499501,20.04795,1781122917391
2013445824,3,-3.8850002,1.4970001,19.524,1781122917401
2013445834,3,-3.8539503,1.6210501,18.714,1781122917411
2013445844,3,-3.8040001,1.79595,17.941051,1781122917420
2013445854,3,-3.8179502,1.863,16.885052,1781122917432
2013445864,3,-3.6670501,1.5520501,15.781051,1781122917441
2013445874,3,-3.6529503,1.317,14.673,1781122917451
2013445885,3,-3.5380502,1.1910001,13.696051,1781122917461
2013445895,3,-3.31995,1.2240001,12.616051,1781122917471
2013445905,3,-3.0880501,1.4470501,11.836051,1781122917481
2013445915,3,-2.9299502,1.64505,11.074051,1781122917493
2013445925,3,-2.77395,1.8700501,10.251,1781122917501
2013445935,3,-2.676,1.9039501,9.516001,1781122917513
2013445945,3,-2.6910002,1.84695,8.800051,1781122917523
2013445955,3,-2.43,1.8319501,8.332951,1781122917533
2013445965,3,-2.1330001,1.815,7.93305,1781122917543
2013445975,3,-1.7860501,1.779,7.5330005,1781122917553
2013445985,3,-1.575,1.8870001,7.2010503,1781122917563
2013445995,3,-1.5289501,2.02395,6.846,1781122917574
2013446005,3,-1.6129501,2.11905,6.4150505,1781122917583
2013446015,3,-1.63995,2.1340501,5.95095,1781122917593
2013446026,3,-1.5870001,2.1360002,5.589,1781122917604
2013446036,3,-1.52505,2.13105,5.151,1781122917614
2013446046,3,-1.4119501,2.163,4.809,1781122917624
2013446056,3,-1.2730501,2.2150502,4.5480003,1781122917634
2013446066,3,-1.218,2.361,4.296,1781122917644
2013446076,3,-1.2210001,2.4520502,4.00005,1781122917655
2013446086,3,-1.23,2.433,3.7699502,1781122917666
2013446096,3,-1.23,2.39205,3.5299501,1781122917679
2013446106,3,-1.1770501,2.32095,3.2310002,1781122917684
2013446116,3,-1.09605,2.29695,2.9920502,1781122917693
2013446126,3,-0.99300003,2.42805,2.937,1781122917705
2013446136,3,-0.88305,2.64105,2.8549502,1781122917714
2013446146,3,-0.80595005,2.66295,2.64,1781122917724
2013446156,3,-0.74205005,2.5480502,2.4820502,1781122917734
2013446167,3,-0.65295005,2.4070501,2.3430002,1781122917744
2013446177,3,-0.55995005,2.26605,2.14395,1781122917755
2013446187,3,-0.47595003,2.1360002,2.02005,1781122917764
2013446232,3,-0.37095,1.863,1.53795,1781122917808
2013446242,3,-0.33705002,1.8750001,1.5139501,1781122917818
2013446252,3,-0.15300001,2.0740502,1.218,1781122917829
2013446262,3,0.67905,2.6509502,-0.75000006,1781122917838
2013446272,3,2.38695,3.3360002,-4.5370502,1781122917849
2013446282,3,2.4799502,2.8500001,-0.076950006,1781122917859
2013446292,3,0.83505005,2.3470502,12.802951,1781122917870
2013446303,3,0.39705002,4.7460003,8.604,1781122917880
2013446313,3,0.6,4.0609503,5.2830005,1781122917889
2013446323,3,0.54495,3.7909503,8.802,1781122917899
2013446333,3,0.76995003,4.7460003,10.057051,1781122917909
2013446343,3,1.18005,5.43795,11.182051,1781122917919
2013446353,3,1.8720001,6.1129503,15.003,1781122917930
2013446363,3,2.15205,6.1990504,16.07595,1781122917939
2013446373,3,1.86705,6.2419505,15.73095,1781122917949
2013446383,3,1.3759501,6.453,16.40205,1781122917959
2013446393,3,1.09095,6.54195,16.67205,1781122917970
2013446403,3,0.78000003,6.537,16.995,1781122917980
2013446413,3,0.62895006,6.3430505,17.698952,1781122917990
2013446423,3,0.52605003,5.9290504,18.159,1781122918000
2013446434,3,0.46905002,5.361,18.56805,1781122918010
2013446444,3,0.402,4.7790003,18.228,1781122918020
2013446454,3,0.59805006,4.3840504,17.386051,1781122918030
2013446464,3,0.93105006,4.1670003,16.615051,1781122918040
2013446474,3,1.24695,4.09695,15.427051,1781122918051
2013446484,3,1.491,4.03695,14.472001,1781122918061
2013446494,3,1.2919501,4.26195,13.773001,1781122918070
2013446504,3,1.4239501,3.90105,12.978001,1781122918081
2013446514,3,1.3570501,3.558,11.790001,1781122918091
2013446524,3,0.80895007,4.12305,10.64805,1781122918101
2013446534,3,0.27,4.5349503,9.25695,1781122918111
2013446544,3,-0.186,4.1329503,9.98295,1781122918121
2013446554,3,-0.47100002,3.3310502,11.259001,1781122918132
2013446564,3,-0.88995004,2.811,12.83895,1781122918142
2013446575,3,-1.4100001,2.256,13.476001,1781122918151
2013446585,3,-1.8210001,1.7580001,12.934951,1781122918161
2013446595,3,-1.9909501,1.53795,12.35805,1781122918171
2013446605,3,-1.8600001,1.6789501,12.39795,1781122918181
2013446615,3,-1.51005,2.0359502,12.34605,1781122918191
2013446625,3,-1.16295,2.35905,11.7640505,1781122918201
2013446635,3,-0.76995003,2.5740001,11.08905,1781122918211
2013446645,3,-0.351,2.7540002,10.564051,1781122918222
2013446655,3,0.07395,2.7640502,10.059,1781122918231
2013446665,3,0.363,2.67705,9.597,1781122918240
2013446675,3,0.51405,2.5150502,9.262051,1781122918251
2013446685,3,0.60300004,2.31795,8.73495,1781122918261
2013446695,3,0.62700003,2.0760002,8.316,1781122918273
2013446705,3,0.65805006,1.8580501,8.224951,1781122918281
2013446716,3,0.75105006,1.6650001,8.12205,1781122918292
2013446726,3,0.75795,1.5589501,8.24205,1781122918303
2013446736,3,0.58095,1.61205,8.488951,1781122918314
2013446746,3,0.342,1.7119501,8.434051,1781122918322
2013446756,3,0.076050006,1.6720501,8.44305,1781122918333
2013446766,3,-0.21300001,1.58595,8.332951,1781122918343
2013446776,3,-0.53595,1.5109501,8.244,1781122918352
2013446786,3,-0.79695004,1.5640501,8.302051,1781122918362
2013446796,3,-0.93795,1.77495,8.400001,1781122918373
2013446806,3,-0.96405005,2.11905,8.476951,1781122918382
2013446816,3,-0.93795,2.526,8.42895,1781122918393
2013446826,3,-0.84195006,2.95005,8.22795,1781122918403
2013446836,3,-0.73905003,3.31695,7.9360504,1781122918413
2013446847,3,-0.62205005,3.5779502,7.6909504,1781122918423
2013446857,3,-0.48795003,3.7429502,7.42995,1781122918433
2013446867,3,-0.38295,3.7740002,7.0350003,1781122918443
2013446877,3,-0.39705002,3.834,6.669,1781122918453
2013446887,3,-0.591,4.06395,6.6190505,1781122918463
2013446897,3,-0.83505005,4.2499504,6.54195,1781122918473
2013446907,3,-1.0510501,4.2499504,6.43905,1781122918483
2013446917,3,-1.2420001,4.143,6.3910503,1781122918493
2013446927,3,-1.6660501,3.8029501,6.3960004,1781122918504
2013446937,3,-1.6680001,3.9079502,6.492,1781122918513
2013446947,3,-1.5840001,4.08495,6.6450005,1781122918524
2013446957,3,-1.5130501,4.22895,6.9760504,1781122918533
2013446967,3,-1.4860501,4.3320003,7.1260505,1781122918544
2013446977,3,-1.4239501,4.485,7.1310005,1781122918554
2013446988,3,-1.4070001,4.5739503,7.038,1781122918564
2013446998,3,-1.4310001,4.70295,6.9799504,1781122918575
2013447008,3,-1.62495,4.8439503,6.9799504,1781122918584
2013447018,3,-1.7380501,4.875,7.0810504,1781122918594
2013447028,3,-1.6830001,4.8460503,7.2889504,1781122918604
2013447038,3,-1.5289501,4.8679504,7.5480003,1781122918614
2013447048,3,-1.3879501,4.9350004,7.6720505,1781122918625
2013447058,3,-1.28505,5.3899503,7.761,1781122918634
2013447068,3,-1.26405,6.50295,8.01,1781122918644
2013447078,3,-1.04805,7.0470004,7.9600506,1781122918654
2013447088,3,-1.1029501,7.3240504,7.7899504,1781122918665
2013447098,3,-1.25205,7.4419503,7.6909504,1781122918675
2013447108,3,-1.3909501,7.4440503,7.7470503,1781122918685
2013447119,3,-1.47405,7.3890004,7.833,1781122918695
2013447129,3,-1.4670001,7.2019506,7.9690504,1781122918705
2013447139,3,-1.383,6.9630003,8.08605,1781122918715
2013447149,3,-1.2970501,6.7189503,8.03895,1781122918725
2013447159,3,-1.21095,6.4819503,7.93095,1781122918736
2013447169,3,-1.1530501,6.2899504,7.8949504,1781122918746
2013447179,3,-1.11,6.0000005,7.9519506,1781122918758
2013447189,3,-1.077,5.7300005,8.125051,1781122918765
2013447199,3,-1.0339501,5.45205,8.458051,1781122918774
2013447209,3,-1.0530001,5.196,8.709001,1781122918785
2013447219,3,-1.1730001,4.88205,8.994,1781122918796
2013447229,3,-1.434,4.74795,9.394051,1781122918807
2013447239,3,-1.8000001,4.7200503,9.834001,1781122918816
2013447249,3,-2.12295,4.73595,10.255951,1781122918826
2013447260,3,-2.3479502,4.8559504,10.858951,1781122918836
2013447270,3,-2.43705,5.1979504,11.2879505,1781122918846
2013447280,3,-2.5110002,5.5909505,11.592001,1781122918856
2013447290,3,-2.7220502,5.8300505,11.92905,1781122918866
2013447300,3,-3.01095,5.9599504,12.133051,1781122918876
2013447310,3,-3.28005,6.012,12.228001,1781122918886
2013447320,3,-3.4999502,6.1080003,12.23805,1781122918896
2013447330,3,-3.6460502,6.216,12.09195,1781122918907
2013447340,3,-3.7099502,6.216,11.97,1781122918918
2013447350,3,-3.6990001,6.08895,11.781,1781122918927
2013447360,3,-3.7080002,5.82105,11.577001,1781122918937
2013447370,3,-3.66,5.5789504,11.38605,1781122918947
2013447380,3,-3.6150002,5.3299503,11.15295,1781122918957
2013447390,3,-3.4969501,4.8580503,10.758,1781122918967
2013447401,3,-3.41595,4.092,10.2630005,1781122918977
2013447411,3,-3.246,3.5419502,9.721951,1781122918987
2013447421,3,-3.05205,3.4650002,9.240001,1781122918997
2013447431,3,-2.937,3.2730002,8.677951,1781122919007
2013447441,3,-2.90595,3.1009502,8.268001,1781122919017
2013447451,3,-2.877,2.95005,7.8090005,1781122919027
2013447461,3,-2.8579502,2.8189502,7.464,1781122919037
2013447471,3,-2.7940502,2.73195,7.2010503,1781122919048
2013447481,3,-2.7889502,2.6530502,7.05,1781122919058
2013447491,3,-2.832,2.5819502,7.011,1781122919067
2013447501,3,-2.8939502,2.457,7.05495,1781122919078
2013447511,3,-2.94405,2.361,7.1580005,1781122919088
2013447521,3,-3.009,2.2339501,7.2649503,1781122919098
2013447532,3,-3.0280502,2.18205,7.4020505,1781122919109
2013447542,3,-2.973,2.28195,7.3900504,1781122919119
2013447552,3,-2.9179502,2.50305,7.38495,1781122919128
2013447562,3,-2.832,2.7439501,7.32,1781122919138
2013447572,3,-2.69805,2.89995,7.3279505,1781122919148
2013447582,3,-2.52795,3.015,7.3369503,1781122919158
2013447592,3,-2.3719501,3.15405,7.4160004,1781122919168
2013447602,3,-2.2399502,3.31695,7.4740505,1781122919178
2013447612,3,-2.1040502,3.5080502,7.5120006,1781122919188
2013447622,3,-2.0080502,3.73305,7.596,1781122919198
2013447632,3,-1.9750501,3.8740501,7.6480503,1781122919208
2013447642,3,-1.9480501,4.0800004,7.7080503,1781122919219
2013447652,3,-1.9459502,4.39605,7.7179503,1781122919228
2013447662,3,-1.9459502,4.78695,7.8420005,1781122919241
2013447673,3,-1.9579501,5.17395,7.8690004,1781122919250
2013447683,3,-1.9600501,5.5740004,7.8450003,1781122919260
2013447693,3,-1.95105,6.20205,7.9450502,1781122919269
2013447703,3,-1.9630501,7.4149504,8.44305,1781122919280
2013447713,3,-2.01495,7.6840506,8.47395,1781122919289
2013447723,3,-2.04705,7.6720505,8.343,1781122919299
2013447733,3,-1.9530001,7.5810003,8.170051,1781122919309
2013447743,3,-1.86195,7.4149504,7.9260006,1781122919321
2013447753,3,-1.7520001,7.1400003,7.66695,1781122919329
2013447763,3,-1.5799501,6.7380004,7.4350505,1781122919340
2013447773,3,-1.383,6.38595,7.2439504,1781122919350
2013447783,3,-1.161,5.99595,7.08795,1781122919359
2013447793,3,-0.933,5.682,6.9370503,1781122919370
2013447804,3,-0.72495,5.4310503,6.801,1781122919380
2013447814,3,-0.55995005,5.3299503,6.8029504,1781122919390
2013447824,3,-0.43800002,5.27505,6.90105,1781122919400
2013447834,3,-0.39900002,5.2200003,7.0189505,1781122919410
2013447844,3,-0.40695003,5.19105,7.2250504,1781122919420
2013447854,3,-0.507,5.20095,7.5480003,1781122919430
2013447864,3,-0.68205005,5.1790504,7.8349504,1781122919441
2013447874,3,-0.78495,5.1670504,8.07195,1781122919451
2013447884,3,-0.864,5.136,8.2900505,1781122919461
2013447894,3,-0.86100006,5.09805,8.352,1781122919471
2013447904,3,-0.80595005,5.11695,8.326051,1781122919482
2013447914,3,-0.74205005,5.136,8.295,1781122919491
2013447924,3,-0.63900006,5.2200003,8.259001,1781122919500
2013447934,3,-0.55695003,5.3320503,8.347051,1781122919510
2013447945,3,-0.48105,5.4690003,8.488951,1781122919521
2013447955,3,-0.44505003,5.6460004,8.74695,1781122919531
2013447965,3,-0.55305004,5.7229505,8.958,1781122919541
2013447975,3,-0.63405,5.72805,9.111,1781122919551
2013447985,3,-0.684,5.6940002,9.36495,1781122919561
2013447995,3,-0.79200006,5.72805,9.691051,1781122919572
2013448005,3,-1.00995,5.72805,10.02105,1781122919583
2013448015,3,-1.2970501,5.7060003,10.387051,1781122919592
2013448025,3,-1.51995,5.6010003,10.876051,1781122919601
2013448035,3,-1.7020501,5.4210005,11.367001,1781122919611
2013448045,3,-1.8600001,5.2369504,11.86005,1781122919621
2013448055,3,-1.9990501,4.9830003,12.19995,1781122919631
2013448065,3,-2.1660001,4.68795,12.255,1781122919642
2013448075,3,-2.3700001,4.4160004,12.19305,1781122919652
2013448086,3,-2.4769502,4.164,12.063001,1781122919662
2013448096,3,-2.45805,3.96795,11.866951,1781122919672
2013448106,3,-2.35995,3.73305,11.491051,1781122919682
2013448116,3,-2.2069502,3.6210003,11.115001,1781122919693
2013448126,3,-2.049,3.63,10.62195,1781122919702
2013448136,3,-1.8240001,3.5820003,10.042951,1781122919713
2013448146,3,-1.6200001,3.52005,9.4129505,1781122919722
2013448156,3,-1.43595,3.594,8.86905,1781122919732
2013448166,3,-1.2420001,3.6880503,8.37405,1781122919744
2013448176,3,-1.08405,3.7549503,8.007,1781122919753
2013448186,3,-0.984,3.7740002,7.7230506,1781122919763
2013448196,3,-0.88305,3.8029501,7.5810003,1781122919772
2013448206,3,-0.84705,3.867,7.5600004,1781122919782
2013448217,3,-0.84195006,3.8820002,7.63395,1781122919793
2013448227,3,-0.90000004,3.8220003,7.7800503,1781122919804
2013448237,3,-1.01205,3.7020001,8.01,1781122919813
2013448247,3,-1.1770501,3.5269501,8.55795,1781122919823
2013448257,3,-1.3950001,3.3619502,8.92695,1781122919834
2013448267,3,-1.55595,3.216,9.08205,1781122919844
2013448277,3,-1.6320001,2.9329503,9.166051,1781122919855
2013448287,3,-1.71405,2.73705,9.0730505,1781122919863
2013448297,3,-1.7710501,2.56995,8.853001,1781122919874
2013448307,3,-1.728,2.6130002,8.53905,1781122919883
2013448317,3,-1.692,2.7250502,8.137051,1781122919894
2013448327,3,-1.6900501,2.7949502,7.7920504,1781122919904
2013448337,3,-1.66305,2.8860002,7.5139503,1781122919914
2013448347,3,-1.66305,3.0289502,7.38705,1781122919926
2013448358,3,-1.7160001,3.21405,7.3510504,1781122919935
2013448368,3,-1.8240001,3.3379502,7.4350505,1781122919944
2013448378,3,-1.968,3.45495,7.5529504,1781122919954
2013448388,3,-2.1330001,3.52005,7.66695,1781122919965
2013448398,3,-2.2669501,3.5989501,7.79895,1781122919974
2013448408,3,-2.43705,3.66105,7.85895,1781122919984
2013448418,3,-2.5759501,3.73305,7.9399505,1781122919995
2013448428,3,-2.76195,3.8220003,8.055,1781122920006
2013448438,3,-2.868,3.9060001,8.14395,1781122920014
2013448448,3,-2.94195,3.9889503,8.23305,1781122920025
2013448458,3,-2.9899502,4.08495,8.326051,1781122920035
2013448468,3,-3.009,4.18995,8.359051,1781122920044
2013448478,3,-2.97495,4.31505,8.29695,1781122920055
2013448488,3,-2.97105,4.46595,8.151,1781122920065
2013448499,3,-2.9160001,4.605,8.019,1781122920077
2013448509,3,-2.8579502,4.7509503,7.8450003,1781122920085
2013448519,3,-2.7910502,4.86105,7.7059503,1781122920095
2013448529,3,-2.73795,4.9399505,7.6270504,1781122920106
2013448539,3,-2.73795,5.24205,7.7130003,1781122920116
2013448549,3,-2.7259502,5.3590503,7.806,1781122920125
2013448559,3,-2.6860502,5.4570003,7.8640504,1781122920135
2013448569,3,-2.628,5.5740004,7.8300004,1781122920146
2013448579,3,-2.595,5.55,7.8300004,1781122920155
2013448589,3,-2.5900502,5.4229503,7.8450003,1781122920166
2013448599,3,-2.6160002,5.289,7.9260006,1781122920176
2013448609,3,-2.60205,5.196,8.154,1781122920187
2013448619,3,-2.595,5.0550003,8.44995,1781122920197
2013448630,3,-2.6140501,4.9350004,8.754001,1781122920207
2013448640,3,-2.5849502,4.854,9.06105,1781122920217
2013448650,3,-2.5780501,4.815,9.264001,1781122920226
2013448660,3,-2.53695,4.7580004,9.4150505,1781122920235
2013448670,3,-2.4870002,4.722,9.549001,1781122920246
2013448680,3,-2.4130502,4.7200503,9.73095,1781122920256
2013448690,3,-2.36505,4.75995,9.966001,1781122920266
2013448700,3,-2.319,4.83405,10.1959505,1781122920277
2013448710,3,-2.2399502,4.9879503,10.404,1781122920287
2013448720,3,-2.16405,5.18205,10.65795,1781122920297
2013448730,3,-2.118,5.35395,10.938001,1781122920306
2013448740,3,-2.13,5.43795,11.163,1781122920316
2013448750,3,-2.2020001,5.37795,11.304001,1781122920328
2013448760,3,-2.3029501,5.184,11.434051,1781122920337
2013448771,3,-2.4150002,4.9159503,11.524951,1781122920347
2013448781,3,-2.48895,4.5880504,11.60595,1781122920357
2013448791,3,-2.59695,4.248,11.674951,1781122920367
2013448801,3,-2.66205,3.9820502,11.733001,1781122920377
2013448811,3,-2.71005,3.76395,11.71395,1781122920387
2013448821,3,-2.74305,3.55605,11.529,1781122920397
2013448831,3,-2.77905,3.3720002,11.27805,1781122920407
2013448841,3,-2.7240002,3.2329502,11.017051,1781122920417
2013448851,3,-2.63805,3.08205,10.794001,1781122920427
2013448861,3,-2.6089501,2.8159502,10.45005,1781122920438
2013448871,3,-2.5540502,2.5890002,10.107,1781122920448
2013448881,3,-2.45595,2.46195,9.892051,1781122920458
2013448891,3,-2.40105,2.361,9.66705,1781122920467
2013448902,3,-2.3820002,2.3130002,9.3820505,1781122920478
2013448912,3,-2.355,2.25405,9.0730505,1781122920488
2013448922,3,-2.3430002,2.187,8.74005,1781122920498
2013448932,3,-2.28795,2.151,8.371051,1781122920508
2013448942,3,-2.2020001,2.0760002,7.9960504,1781122920518
2013448952,3,-2.0989501,2.0359502,7.6150503,1781122920529
2013448962,3,-1.98195,2.01705,7.21995,1781122920538
2013448972,3,-1.86195,1.9969501,6.8509502,1781122920548
2013448982,3,-1.74195,2.04495,6.5449505,1781122920559
2013448992,3,-1.659,2.079,6.3360004,1781122920568
2013449002,3,-1.6369501,2.2030501,6.21705,1781122920579
2013449012,3,-1.64205,2.36805,6.1810503,1781122920589
2013449022,3,-1.6969501,2.5549502,6.2569504,1781122920599
2013449032,3,-1.812,2.799,6.4459505,1781122920609
2013449043,3,-1.9699501,3.144,6.6570005,1781122920619
2013449053,3,-2.1040502,3.5419502,6.8700004,1781122920629
2013449063,3,-2.23305,4.00395,7.0999503,1781122920639
2013449073,3,-2.3410501,4.46805,7.2889504,1781122920649
2013449083,3,-2.4130502,5.091,7.5259504,1781122920659
2013449093,3,-2.50095,6.0820503,8.06505,1781122920669
2013449103,3,-2.6449502,6.67995,8.379001,1781122920679
2013449113,3,-2.8939502,7.2450004,8.56995,1781122920689
2013449123,3,-2.9350502,7.2430506,8.532001,1781122920699
2013449133,3,-2.8249502,7.1140504,8.446051,1781122920709
2013449143,3,-2.63295,6.9100504,8.319,1781122920719
2013449153,3,-2.4060001,6.5989504,8.352,1781122920729
2013449163,3,-2.18295,6.2059503,8.46195,1781122920741
2013449173,3,-1.98195,5.7709503,8.611051,1781122920750
2013449184,3,-1.8070501,5.38005,8.7640505,1781122920763
2013449194,3,-1.6870501,5.019,8.898001,1781122920771
2013449204,3,-1.6060501,4.5930004,8.889001,1781122920780
2013449214,3,-1.51005,4.25505,8.817,1781122920790
2013449224,3,-1.3930501,3.9580503,8.68995,1781122920800
2013449234,3,-1.266,3.7120502,8.56095,1781122920811
2013449244,3,-1.17495,3.5299501,8.4529505,1781122920820
2013449254,3,-1.11,3.3619502,8.367001,1781122920834
2013449264,3,-1.06005,3.2899501,8.34,1781122920840
2013449274,3,-0.97605,3.24195,8.268001,1781122920850
2013449284,3,-0.90900004,3.2899501,8.194051,1781122920861
2013449294,3,-0.82500005,3.38595,8.142,1781122920872
2013449304,3,-0.76605004,3.4990501,8.08395,1781122920881
2013449315,3,-0.711,3.65895,8.014951,1781122920891
2013449325,3,-0.70605004,3.8530502,8.017051,1781122920902
2013449335,3,-0.74895006,4.07595,8.079,1781122920911
2013449345,3,-0.77295005,4.4230504,8.154,1781122920921
2013449355,3,-0.80895007,4.8460503,8.316,1781122920932
2013449365,3,-0.87795,5.20095,8.472,1781122920941
2013449375,3,-0.99300003,5.433,8.601001,1781122920951
2013449385,3,-1.1179501,5.5410004,8.6320505,1781122920961
2013449395,3,-1.16505,5.6340003,8.71605,1781122920971
2013449405,3,-1.16505,5.7400503,8.809951,1781122920982
2013449415,3,-1.1560501,5.7990003,8.938951,1781122920992
2013449425,3,-1.13205,5.802,9.09195,1781122921002
2013449435,3,-1.1200501,5.85405,9.298051,1781122921012
2013449445,3,-1.12695,5.91405,9.51105,1781122921022
2013449456,3,-1.18005,5.9550004,9.769951,1781122921032
2013449466,3,-1.1869501,5.919,9.979951,1781122921042
2013449476,3,-1.1530501,5.9380503,10.227,1781122921052
2013449486,3,-1.077,5.98395,10.47795,1781122921062
2013449496,3,-1.0339501,5.94495,10.76595,1781122921072
2013449506,3,-1.06005,5.8380003,11.13195,1781122921082
2013449516,3,-1.1869501,5.622,11.53695,1781122921093
2013449526,3,-1.33305,5.3370004,11.989051,1781122921102
2013449536,3,-1.52505,5.0020504,12.352951,1781122921115
2013449546,3,-1.71105,4.6530004,12.552001,1781122921122
2013449556,3,-1.8139501,4.3170004,12.50895,1781122921133
2013449566,3,-1.812,4.0300503,12.348001,1781122921142
2013449576,3,-1.7569501,3.72795,12.279,1781122921153
2013449586,3,-1.71105,3.4510503,12.23805,1781122921163
2013449597,3,-1.764,3.0870001,12.19305,1781122921174
2013449607,3,-1.8070501,2.6530502,11.946,1781122921183
2013449617,3,-1.8409501,2.24895,11.493001,1781122921193
2013449627,3,-1.7860501,1.88505,10.797001,1781122921203
2013449637,3,-1.6609501,1.60695,10.00905,1781122921215
2013449647,3,-1.434,1.43505,9.127951,1781122921223
2013449657,3,-1.1560501,1.3440001,8.299951,1781122921233
2013449667,3,-0.85395,1.36995,7.5859504,1781122921245
2013449677,3,-0.56700003,1.4470501,7.0330505,1781122921255
2013449687,3,-0.39000002,1.5160501,6.7170005,1781122921265
2013449697,3,-0.26505002,1.61205,6.609,1781122921273
2013449707,3,-0.23400001,1.65495,6.6520505,1781122921287
2013449717,3,-0.25605002,1.7080501,6.84105,1781122921294
2013449728,3,-0.33900002,1.746,7.0950003,1781122921303
2013449738,3,-0.49695003,1.8010501,7.3750505,1781122921315
2013449748,3,-0.68205005,1.8510001,7.6650004,1781122921324
2013449758,3,-0.88500005,1.8730501,7.9399505,1781122921334
2013449768,3,-1.12995,1.8319501,8.151,1781122921344
2013449778,3,-1.33305,1.8540001,8.247001,1781122921354
2013449788,3,-1.5799501,1.96905,8.22105,1781122921364
2013449798,3,-1.8049501,2.1790502,8.137051,1781122921375
2013449808,3,-2.0350502,2.4160502,8.08395,1781122921385
2013449818,3,-2.217,2.6490002,8.07705,1781122921394
2013449828,3,-2.4060001,2.979,8.094001,1781122921405
2013449838,3,-2.607,3.38805,8.11305,1781122921414
2013449848,3,-2.8170002,3.8220003,8.167951,1781122921424
2013449858,3,-3.0349503,4.2340503,8.22795,1781122921435
2013449869,3,-3.282,4.6740003,8.29695,1781122921445
2013449879,3,-3.4950001,5.01195,8.20605,1781122921455
2013449889,3,-3.6340501,5.3920503,8.07195,1781122921465
2013449899,3,-3.6649501,5.8110003,7.8880506,1781122921475
2013449909,3,-3.6720002,6.3120003,7.701,1781122921485
2013449919,3,-3.7150502,6.9870005,7.6270504,1781122921495
2013449929,3,-3.7489502,7.2910504,7.3680005,1781122921505
2013449939,3,-3.7420502,7.4080505,7.1700006,1781122921515
2013449949,3,-3.6840003,7.42995,7.0330505,1781122921525
2013449959,3,-3.6030002,7.3099504,6.98505,1781122921536
2013449969,3,-3.4420502,7.12305,7.0470004,1781122921546
2013449979,3,-3.2440503,6.81195,7.2750006,1781122921555
2013449989,3,-3.0660002,6.4630504,7.4659505,1781122921566
2013450000,3,-2.8890002,6.0150003,7.6200004,1781122921576
2013450010,3,-2.7580502,5.622,7.7730002,1781122921586
2013450020,3,-2.6569502,5.3370004,7.9360504,1781122921596
2013450030,3,-2.571,5.0809503,8.0460005,1781122921606
2013450040,3,-2.50395,4.866,8.10105,1781122921616
2013450050,3,-2.466,4.71,8.10795,1781122921626
2013450060,3,-2.43405,4.566,8.106,1781122921636
2013450070,3,-2.3749502,4.46295,8.13195,1781122921647
2013450080,3,-2.298,4.4040003,8.154,1781122921656
2013450090,3,-2.22405,4.40595,8.211,1781122921667
2013450100,3,-2.15205,4.425,8.20395,1781122921676
2013450110,3,-2.05605,4.4830503,8.20605,1781122921686
2013450120,3,-1.9339501,4.545,8.16495,1781122921697
2013450130,3,-1.7950501,4.602,8.175,1781122921707
2013450141,3,-1.6800001,4.64505,8.212951,1781122921718
2013450151,3,-1.59195,4.7080503,8.259001,1781122921726
2013450161,3,-1.5340501,4.7119503,8.3550005,1781122921737
2013450171,3,-1.50495,4.734,8.53695,1781122921748
2013450181,3,-1.4790001,4.74795,8.70195,1781122921758
2013450191,3,-1.4479501,4.827,8.886001,1781122921767
2013450201,3,-1.3570501,4.99695,9.09195,1781122921778
2013450211,3,-1.2210001,5.2099504,9.40095,1781122921788
2013450221,3,-1.17495,5.4739504,9.873,1781122921797
2013450231,3,-1.3470001,5.6599503,10.521001,1781122921807
2013450241,3,-1.7209501,5.67495,11.26395,1781122921818
2013450251,3,-2.2050002,5.5360503,12.16905,1781122921828
2013450261,3,-2.7480001,5.3490005,13.05,1781122921838
2013450271,3,-3.2239501,5.1649504,13.665001,1781122921847
2013450282,3,-3.5089502,4.9609504,13.83705,1781122921858
2013450292,3,-3.591,4.8439503,13.585951,1781122921868
2013450302,3,-3.5070002,4.77705,13.066051,1781122921878
2013450312,3,-3.34695,4.61205,12.36495,1781122921888
2013450322,3,-3.1219501,4.36005,11.689951,1781122921898
2013450332,3,-2.9250002,4.12605,11.13195,1781122921909
2013450342,3,-2.7259502,3.82905,10.596001,1781122921925
2013450352,3,-2.56395,3.522,10.12395,1781122921932
2013450362,3,-2.40105,3.2059503,9.612,1781122921940
2013450372,3,-2.2720501,2.835,9.0730505,1781122921950
2013450382,3,-2.1379502,2.4760501,8.53695,1781122921959
2013450392,3,-1.9990501,2.1649501,8.067,1781122921969
2013450402,3,-1.9150501,1.9540501,7.6819506,1781122921979
2013450413,3,-1.79805,1.84905,7.3609505,1781122921989
2013450423,3,-1.74495,1.7820001,7.1310005,1781122921999
2013450433,3,-1.7380501,1.7869501,7.0069504,1781122922009
2013450443,3,-1.77795,1.8229501,6.95205,1781122922019
2013450453,3,-1.8649501,1.9710001,6.97305,1781122922030
2013450463,3,-1.9909501,2.112,7.0189505,1781122922039
2013450473,3,-2.1690001,2.2420502,6.9970503,1781122922049
2013450483,3,-2.358,2.4120002,6.9799504,1781122922060
2013450493,3,-2.46795,2.598,6.91095,1781122922069
2013450503,3,-2.568,2.95005,6.813,1781122922079
2013450513,3,-2.628,3.42405,6.801,1781122922089
2013450523,3,-2.63595,4.07595,6.74595,1781122922100
2013450533,3,-2.5780501,4.8130503,6.52995,1781122922110
2013450543,3,-2.50395,5.5810504,6.45795,1781122922120
2013450554,3,-2.4820502,7.2499504,6.918,1781122922130
2013450564,3,-2.6140501,7.7310004,6.7890005,1781122922141
2013450574,3,-2.7820501,7.5709505,6.5830503,1781122922150
2013450584,3,-2.7220502,7.4539504,6.5779505,1781122922161
2013450594,3,-2.5180502,7.48995,6.6280503,1781122922171
2013450604,3,-2.298,7.54995,6.6280503,1781122922180
2013450614,3,-2.1379502,7.4610004,6.6600003,1781122922190
2013450624,3,-1.9770001,7.1899505,6.7120504,1781122922201
2013450634,3,-1.7860501,6.7429504,6.89895,1781122922212
2013450644,3,-1.623,6.26595,7.1620502,1781122922222
2013450654,3,-1.43595,5.907,7.3729506,1781122922232
2013450664,3,-1.2610501,5.57205,7.5330005,1781122922241
2013450674,3,-1.1080501,5.3760004,7.6909504,1781122922250
2013450684,3,-0.98805004,5.1150002,7.7920504,1781122922262
2013450695,3,-0.90900004,4.80795,7.9189506,1781122922273
2013450705,3,-0.85905004,4.5280504,8.04105,1781122922280
2013450715,3,-0.82500005,4.2910504,8.20395,1781122922292
2013450725,3,-0.78000003,4.01805,8.40495,1781122922301
2013450735,3,-0.73905003,3.8149502,8.629951,1781122922312
2013450745,3,-0.64395005,3.66105,8.7949505,1781122922321
2013450755,3,-0.6,3.5779502,9.0060005,1781122922331
2013450765,3,-0.55695003,3.5370002,9.16905,1781122922341
2013450775,3,-0.50895,3.6010501,9.231001,1781122922351
2013450785,3,-0.47595003,3.69705,9.298051,1781122922362
2013450795,3,-0.45195,3.8460002,9.372001,1781122922372
2013450805,3,-0.43995002,3.96795,9.387,1781122922381
2013450815,3,-0.42600003,4.0950003,9.35805,1781122922393
2013450826,3,-0.43305,4.2340503,9.37005,1781122922402
2013450836,3,-0.46395,4.38705,9.351001,1781122922412
2013450846,3,-0.47400004,4.566,9.3820505,1781122922422
2013450856,3,-0.483,4.6909504,9.37695,1781122922432
2013450866,3,-0.50205004,4.8559504,9.37905,1781122922442
2013450876,3,-0.47805002,4.9950004,9.394051,1781122922452
2013450886,3,-0.41400003,5.1270003,9.49905,1781122922462
2013450896,3,-0.354,5.289,9.592051,1781122922473
2013450906,3,-0.31800002,5.42805,9.814951,1781122922482
2013450916,3,-0.363,5.5600505,10.15005,1781122922493
2013450926,3,-0.53295004,5.6250005,10.699051,1781122922502
2013450936,3,-0.85695004,5.5459504,11.380951,1781122922512
2013450946,3,-1.2709501,5.28,12.123,1781122922523
2013450956,3,-1.77795,4.8559504,12.86295,1781122922533
2013450967,3,-2.25,4.4539504,13.417951,1781122922543
2013450977,3,-2.5780501,4.1070004,13.621951,1781122922553
2013450987,3,-2.67105,3.834,13.387051,1781122922563
2013450997,3,-2.5489502,3.657,12.8220005,1781122922573
2013451007,3,-2.2669501,3.522,12.114,1781122922583
2013451017,3,-1.8840001,3.4480503,11.40495,1781122922594
2013451027,3,-1.4959501,3.3960001,10.758,1781122922604
2013451037,3,-1.194,3.2970002,10.258051,1781122922614
2013451047,3,-0.99495006,3.147,9.83205,1781122922623
2013451057,3,-0.88095003,2.9190001,9.42195,1781122922634
2013451067,3,-0.85200006,2.661,9.007951,1781122922644
2013451077,3,-0.82800007,2.38995,8.589001,1781122922654
2013451087,3,-0.79395,2.1409502,8.247001,1781122922664
2013451098,3,-0.78000003,1.9950001,7.9999504,1781122922674
2013451108,3,-0.76605004,1.8679501,7.7749505,1781122922684
2013451118,3,-0.735,1.81305,7.6390505,1781122922694
2013451128,3,-0.73200005,1.76505,7.5790505,1781122922705
2013451138,3,-0.72705,1.72395,7.54995,1781122922715
2013451148,3,-0.74205005,1.6860001,7.596,1781122922724
2013451158,3,-0.79005,1.6669501,7.6530004,1781122922735
2013451168,3,-0.864,1.6840501,7.7539506,1781122922745
2013451178,3,-0.94305,1.6530001,7.866,1781122922755
2013451188,3,-1.0360501,1.64295,7.938,1781122922766
2013451198,3,-1.23,1.6290001,8.09595,1781122922776
2013451208,3,-1.4479501,1.6890001,8.20395,1781122922785
2013451218,3,-1.71405,1.7149501,8.280001,1781122922795
2013451228,3,-1.93605,1.8270001,8.36205,1781122922805
2013451239,3,-2.12295,1.99995,8.403001,1781122922815
2013451249,3,-2.3100002,2.1979501,8.44305,1781122922826
2013451259,3,-2.4540002,2.49495,8.56305,1781122922836
2013451269,3,-2.5900502,2.8830001,8.644051,1781122922845
2013451279,3,-2.7,3.31395,8.649,1781122922855
2013451289,3,-2.7859502,3.7120502,8.529,1781122922865
2013451299,3,-2.8290002,4.15905,8.338051,1781122922875
2013451309,3,-2.8129501,4.6189504,8.029051,1781122922886
2013451319,3,-2.7169502,5.0809503,7.69395,1781122922895
2013451329,3,-2.59695,5.5140004,7.4160004,1781122922906
2013451339,3,-2.4769502,5.91405,7.1839504,1781122922917
2013451349,3,-2.4130502,6.2779503,7.11705,1781122922927
2013451359,3,-2.47305,6.5269504,7.2630005,1781122922937
2013451369,3,-2.664,6.834,7.7470503,1781122922946
2013451380,3,-2.9850001,7.43205,8.38095,1781122922956
2013451390,3,-3.3030002,7.7890506,8.677951,1781122922967
2013451400,3,-3.4380002,7.3960505,8.68305,1781122922976
2013451410,3,-3.4060502,7.01805,8.42895,1781122922986
2013451420,3,-3.2269502,6.7450504,8.23995,1781122922997
2013451430,3,-2.97105,6.453,8.047951,1781122923006
2013451440,3,-2.736,6.1009502,7.8490505,1781122923016
2013451450,3,-2.5210502,5.76105,7.7149506,1781122923026
2013451460,3,-2.334,5.51205,7.6390505,1781122923036
2013451470,3,-2.18295,5.3490005,7.62195,1781122923047
2013451480,3,-2.04705,5.18895,7.5649505,1781122923057
2013451490,3,-1.9480501,4.947,7.4710503,1781122923067
2013451500,3,-1.8550501,4.7700005,7.4020505,1781122923077
2013451511,3,-1.7760001,4.6189504,7.4689503,1781122923087
2013451521,3,-1.7209501,4.54005,7.6170006,1781122923097
2013451531,3,-1.71405,4.48995,7.761,1781122923107
2013451541,3,-1.74195,4.497,7.8930006,1781122923118
2013451551,3,-1.79295,4.605,7.97205,1781122923126
2013451561,3,-1.8379501,4.6980004,8.103001,1781122923137
2013451571,3,-1.8600001,4.794,8.39295,1781122923148
2013451581,3,-1.8930001,4.87305,8.754001,1781122923157
2013451591,3,-1.9909501,4.9300504,9.21405,1781122923167
2013451601,3,-2.07795,5.019,9.556951,1781122923177
2013451611,3,-2.0970001,5.0550003,9.84405,1781122923187
2013451621,3,-1.9909501,5.1340504,10.11705,1781122923199
2013451631,3,-1.8840001,5.3370004,10.356001,1781122923208
2013451641,3,-1.9459502,5.4859505,10.63605,1781122923220
2013451652,3,-2.1349502,5.41095,10.95195,1781122923227
2013451662,3,-2.36295,5.2699504,11.304001,1781122923238
2013451672,3,-2.6119502,5.1460505,11.776051,1781122923249
2013451682,3,-2.9179502,5.11905,12.178051,1781122923258
2013451692,3,-3.25305,5.0479503,12.456,1781122923269
2013451702,3,-3.52905,4.9450502,12.6,1781122923280
2013451712,3,-3.7369502,4.86105,12.616051,1781122923290
2013451722,3,-3.8880002,4.6980004,12.492001,1781122923299
2013451732,3,-3.9379501,4.392,12.247951,1781122923308
2013451742,3,-3.90405,4.04895,11.84805,1781122923318
2013451752,3,-3.8130002,3.759,11.481001,1781122923328
2013451762,3,-3.76095,3.5130002,11.082001,1781122923339
2013451772,3,-3.69405,3.2620502,10.543051,1781122923349
2013451782,3,-3.5740502,3.04095,9.913051,1781122923359
2013451793,3,-3.4039502,2.8540502,9.250051,1781122923369
2013451803,3,-3.2269502,2.70405,8.52,1781122923379
2013451813,3,-3.1020002,2.6200502,7.82595,1781122923389
2013451823,3,-2.9899502,2.526,7.2030005,1781122923399
2013451833,3,-2.8990502,2.4139502,6.6280503,1781122923410
2013451843,3,-2.83395,2.361,6.1969504,1781122923419
2013451853,3,-2.7859502,2.3490002,5.8429503,1781122923430
2013451863,3,-2.7460501,2.397,5.6520004,1781122923439
2013451873,3,-2.7190502,2.46405,5.5459504,1781122923449
2013451883,3,-2.71005,2.5819502,5.50605,1781122923460
2013451893,3,-2.664,2.7900002,5.5609503,1781122923471
2013451903,3,-2.6160002,3.084,5.649,1781122923480
2013451913,3,-2.52495,3.4120502,5.793,1781122923490
2013451924,3,-2.427,3.7999501,5.99205,1781122923499
2013451934,3,-2.3479502,4.236,6.18795,1781122923510
2013451944,3,-2.2759502,4.69605,6.327,1781122923521
2013451954,3,-2.217,5.682,6.8940005,1781122923530
2013451964,3,-2.193,6.7120504,7.3560004,1781122923540
2013451974,3,-2.26005,7.0129504,7.3489504,1781122923550
2013451984,3,-2.2050002,6.9030004,7.122,1781122923560
2013451994,3,-2.0080502,6.7500005,6.8749504,1781122923570
2013452004,3,-1.7569501,6.52995,6.5610003,1781122923581
2013452014,3,-1.5130501,6.4030504,6.43905,1781122923591
2013452024,3,-1.3429501,6.2520003,6.5610003,1781122923601
2013452034,3,-1.302,6.0720005,6.9090004,1781122923611
2013452044,3,-1.386,5.7630005,7.4110503,1781122923621
2013452054,3,-1.55295,5.4040504,8.055,1781122923631
2013452065,3,-1.77795,5.031,8.721001,1781122923641
2013452075,3,-1.968,4.67205,9.22395,1781122923651
2013452085,3,-2.0370002,4.341,9.53295,1781122923661
2013452095,3,-1.98705,4.07805,9.670951,1781122923671
2013452105,3,-1.90005,3.9060001,9.58005,1781122923681
2013452115,3,-1.7569501,3.7690501,9.42195,1781122923691
2013452125,3,-1.5439501,3.6780002,9.240001,1781122923701
2013452135,3,-1.2970501,3.6469502,9.09,1781122923711
2013452145,3,-1.0890001,3.6540003,8.983951,1781122923721
2013452155,3,-0.84000003,3.6690001,8.89305,1781122923733
2013452165,3,-0.67905,3.76395,8.806951,1781122923742
2013452175,3,-0.51900005,3.903,8.754001,1781122923752
2013452185,3,-0.42600003,4.116,8.778001,1781122923763
2013452196,3,-0.41595003,4.52295,8.995951,1781122923773
2013452206,3,-0.47100002,4.8250504,9.160951,1781122923784
2013452216,3,-0.615,4.9759502,9.217051,1781122923792
2013452226,3,-0.71505004,5.0020504,9.147,1781122923802
2013452236,3,-0.76995003,4.9420505,9.03195,1781122923812
2013452246,3,-0.76995003,4.8900003,8.932051,1781122923822
2013452256,3,-0.74205005,4.88205,8.814,1781122923832
2013452266,3,-0.684,4.899,8.641951,1781122923842
2013452276,3,-0.61200005,4.9489503,8.55105,1781122923853
2013452286,3,-0.57600003,5.004,8.541,1781122923862
2013452296,3,-0.57195,5.0599504,8.61795,1781122923873
2013452306,3,-0.60795003,5.1150002,8.77095,1781122923882
2013452316,3,-0.67695004,5.1460505,9.003,1781122923892
2013452326,3,-0.77505004,5.184,9.195001,1781122923903
2013452337,3,-0.80895007,5.20095,9.372001,1781122923913
2013452347,3,-0.76095,5.3179502,9.54705,1781122923923
2013452357,3,-0.68205005,5.61495,9.778951,1781122923934
2013452367,3,-0.62205005,5.8759503,10.134001,1781122923943
2013452377,3,-0.66495,5.8900504,10.555051,1781122923953
2013452387,3,-0.84705,5.6839504,11.211,1781122923964
2013452397,3,-1.1149501,5.3640003,11.877001,1781122923974
2013452407,3,-1.5270001,4.97805,12.43395,1781122923984
2013452417,3,-1.89795,4.5589504,12.7240505,1781122923994
2013452427,3,-2.12595,4.15905,12.670951,1781122924005
2013452437,3,-2.181,3.8410501,12.597,1781122924015
2013452447,3,-2.1780002,3.55395,12.619051,1781122924025
2013452457,3,-2.217,3.2400002,12.576,1781122924034
2013452467,3,-2.26395,2.8159502,12.436951,1781122924044
2013452478,3,-2.29605,2.364,12.127951,1781122924054
2013452488,3,-2.25195,1.9470001,11.515051,1781122924064
2013452498,3,-2.08995,1.5780001,10.67895,1781122924074
2013452508,3,-1.8190501,1.3560001,9.754951,1781122924085
2013452518,3,-1.4929501,1.30095,8.814,1781122924094
2013452528,3,-1.1389501,1.3609501,7.9879503,1781122924104
2013452538,3,-0.804,1.5109501,7.3489504,1781122924116
2013452548,3,-0.55695003,1.6840501,6.9160504,1781122924125
2013452558,3,-0.37305,1.84905,6.73605,1781122924135
2013452568,3,-0.31305,2.0020502,6.74805,1781122924145
2013452578,3,-0.351,2.124,6.7909503,1781122924155
2013452588,3,-0.46395,2.2369502,7.011,1781122924165
2013452598,3,-0.61995006,2.3370001,7.3510504,1781122924175
2013452609,3,-0.85200006,2.39505,7.7629504,1781122924185
2013452619,3,-1.1010001,2.46705,8.224951,1781122924195
2013452629,3,-1.3450501,2.49795,8.71605,1781122924205
2013452639,3,-1.5700501,2.538,9.172951,1781122924216
2013452649,3,-1.8100501,2.5789502,9.396001,1781122924225
2013452659,3,-1.9720501,2.64105,9.40305,1781122924235
2013452669,3,-2.0700002,2.7540002,9.217051,1781122924246
2013452679,3,-2.08995,2.8570502,8.833051,1781122924255
2013452689,3,-2.05095,3.0030003,8.46195,1781122924266
2013452699,3,-1.9630501,3.1969502,8.059951,1781122924277
2013452709,3,-1.8790501,3.4339502,7.7820005,1781122924285
2013452719,3,-1.8210001,3.7120502,7.6170006,1781122924297
2013452729,3,-1.8049501,3.9769502,7.524,1781122924305
2013452739,3,-1.8600001,4.25295,7.4400005,1781122924316
2013452750,3,-1.9579501,4.47795,7.42995,1781122924327
2013452760,3,-2.1349502,4.69605,7.45905,1781122924336
2013452770,3,-2.3389502,4.8700504,7.5769506,1781122924346
2013452780,3,-2.559,4.9830003,7.6000504,1781122924357
2013452790,3,-2.7190502,5.08605,7.596,1781122924366
2013452800,3,-2.8170002,5.2200003,7.5670505,1781122924377
2013452810,3,-2.8219502,5.3560505,7.53105,1781122924386
2013452820,3,-2.805,5.5219502,7.5000005,1781122924397
2013452830,3,-2.7859502,5.77995,7.5600004,1781122924406
2013452840,3,-2.90595,6.3169503,7.7370005,1781122924417
2013452850,3,-2.9160001,6.32805,7.7299504,1781122924426
2013452860,3,-2.91105,6.1540504,7.7059503,1781122924437
2013452870,3,-2.9160001,6.0030003,7.7470503,1781122924446
2013452880,3,-2.9200501,5.847,7.87095,1781122924457
2013452891,3,-2.9350502,5.6800504,7.9789505,1781122924467
2013452901,3,-2.8890002,5.50005,8.067,1781122924477
2013452911,3,-2.7960002,5.3560505,8.23005,1781122924487
2013452921,3,-2.69295,5.208,8.39805,1781122924497
2013452931,3,-2.6209502,5.0160003,8.39295,1781122924507
2013452941,3,-2.5159502,4.8109503,8.41395,1781122924517
2013452951,3,-2.391,4.64505,8.41905,1781122924527
2013452961,3,-2.25195,4.5540004,8.434051,1781122924538
2013452971,3,-2.12805,4.5090003,8.46,1781122924547
2013452981,3,-2.013,4.53,8.517,1781122924557
2013452991,3,-1.9150501,4.6000504,8.55105,1781122924568
2013453001,3,-1.812,4.70295,8.59395,1781122924578
2013453011,3,-1.7020501,4.8030005,8.61795,1781122924588
2013453022,3,-1.60395,4.9420505,8.668051,1781122924598
2013453032,3,-1.5490501,5.064,8.778001,1781122924608
2013453042,3,-1.52505,5.2270503,8.95995,1781122924618
2013453052,3,-1.5340501,5.445,9.160951,1781122924628
2013453062,3,-1.5370501,5.6839504,9.40095,1781122924638
2013453072,3,-1.47195,6.0150003,9.66705,1781122924648
2013453082,3,-1.48905,6.333,10.110001,1781122924659
2013453092,3,-1.66305,6.40005,10.509001,1781122924669
2013453102,3,-1.9480501,6.1920004,10.9810505,1781122924678
2013453112,3,-2.2810502,5.907,11.479051,1781122924688
2013453122,3,-2.5470002,5.5620003,11.842951,1781122924699
2013453132,3,-2.77905,5.1480002,11.982,1781122924709
2013453142,3,-2.8650002,4.7650504,12.042001,1781122924719
2013453152,3,-2.8819501,4.3699503,11.977051,1781122924729
2013453163,3,-2.94,4.02495,11.910001,1781122924739
2013453173,3,-3.0310502,3.6109502,11.7949505,1781122924751
2013453183,3,-3.1290002,3.2280002,11.704051,1781122924759
2013453193,3,-3.2029502,2.8519502,11.653951,1781122924772
2013453203,3,-3.21705,2.5069501,11.491051,1781122924779
2013453213,3,-3.213,2.2420502,11.151001,1781122924789
2013453223,3,-3.0930002,2.02605,10.597951,1781122924799
2013453233,3,-2.90595,1.8970501,9.925051,1781122924809
2013453243,3,-2.703,1.8270001,9.243,1781122924821
2013453253,3,-2.52495,1.7580001,8.56095,1781122924830
2013453263,3,-2.367,1.7560501,7.9360504,1781122924839
2013453273,3,-2.25,1.7910001,7.4040003,1781122924849
2013453283,3,-2.157,1.84905,7.0069504,1781122924861
2013453294,3,-2.12805,1.9729501,6.6979504,1781122924870
2013453304,3,-2.12805,2.1769502,6.4750504,1781122924880
2013453314,3,-2.23095,2.469,6.3910503,1781122924890
2013453324,3,-2.3389502,2.8260002,6.3889503,1781122924900
2013453334,3,-2.50605,3.25005,6.4609504,1781122924912
2013453344,3,-2.628,3.8070002,6.6210003,1781122924921
2013453354,3,-2.7120001,4.30305,6.7699504,1781122924931
2013453364,3,-2.844,5.7229505,7.9909506,1781122924941
2013453374,3,-2.91105,6.9030004,8.01,1781122924950
2013453384,3,-3.18105,6.8650503,7.9909506,1781122924961
2013453394,3,-3.0660002,6.66795,7.1070004,1781122924971
2013453404,3,-2.7940502,6.6210003,6.801,1781122924981
2013453414,3,-2.43195,6.54405,6.4440002,1781122924991
2013453424,3,-2.0629501,6.4939504,6.11595,1781122925001
2013453435,3,-1.70895,6.54405,6.01095,1781122925011
2013453445,3,-1.422,6.4549503,6.05595,1781122925021
2013453455,3,-1.21095,6.2520003,6.2839503,1781122925031
2013453465,3,-1.029,6.0100503,6.5809503,1781122925042
2013453475,3,-0.93105006,5.7439504,6.9349504,1781122925052
2013453485,3,-0.87600005,5.5410004,7.38705,1781122925062
2013453495,3,-0.84495,5.3970003,7.8610506,1781122925072
2013453505,3,-0.897,5.2369504,8.11305,1781122925081
2013453515,3,-0.96000004,5.03595,8.149051,1781122925091
2013453525,3,-0.9480001,4.782,7.998,1781122925101
2013453535,3,-0.84705,4.5349503,8.05095,1781122925116
2013453545,3,-0.76605004,4.3840504,8.10105,1781122925122
2013453555,3,-0.66705,4.308,8.17695,1781122925132
2013453565,3,-0.55005,4.2000003,8.235001,1781122925142
2013453576,3,-0.423,4.12095,8.27805,1781122925152
2013453586,3,-0.27495003,4.092,8.307,1781122925162
2013453596,3,-0.141,4.104,8.368951,1781122925173
2013453606,3,-0.034950003,4.164,8.41905,1781122925182
2013453616,3,0.010950001,4.2190504,8.488951,1781122925192
2013453626,3,0.022950001,4.22205,8.625,1781122925203
2013453636,3,-0.022950001,4.2790504,8.74695,1781122925213
2013453646,3,-0.11895001,4.34595,8.87895,1781122925223
2013453656,3,-0.20805001,4.3770003,9.018001,1781122925233
2013453666,3,-0.27,4.4040003,9.114,1781122925243
2013453676,3,-0.32505003,4.413,9.20895,1781122925253
2013453686,3,-0.37995002,4.4110503,9.283951,1781122925263
2013453696,3,-0.37095,4.4160004,9.37905,1781122925273
2013453707,3,-0.34395,4.4490004,9.43395,1781122925282
2013453717,3,-0.27705002,4.52295,9.489,1781122925293
2013453727,3,-0.22695,4.6140003,9.589951,1781122925302
2013453737,3,-0.19800001,4.71495,9.717,1781122925313
2013453747,3,-0.15795001,4.8700504,9.786,1781122925323
2013453757,3,-0.21705002,4.971,9.85305,1781122925333
2013453767,3,-0.23700002,5.076,9.913051,1781122925344
2013453777,3,-0.18105,5.22195,10.02105,1781122925354
2013453787,3,-0.16005,5.44005,10.167001,1781122925364
2013453797,3,-0.19605,5.5810504,10.441951,1781122925374
2013453807,3,-0.30105,5.6250005,10.809001,1781122925384
2013453817,3,-0.49005002,5.5669503,11.211,1781122925394
2013453827,3,-0.73200005,5.4550505,11.61795,1781122925404
2013453837,3,-0.98805004,5.2510505,11.865001,1781122925414
2013453848,3,-1.218,4.9900503,11.956051,1781122925424
2013453858,3,-1.371,4.6410003,12.007951,1781122925434
2013453868,3,-1.5169501,4.33605,12.043951,1781122925444
2013453878,3,-1.6350001,4.01805,12.02505,1781122925454
2013453888,3,-1.692,3.6400502,12.019951,1781122925464
2013453898,3,-1.7860501,3.2329502,11.92395,1781122925475
2013453908,3,-1.8169501,2.8140001,11.592001,1781122925484
2013453918,3,-1.7880001,2.39205,11.029051,1781122925495
2013453928,3,-1.6279501,2.05005,10.311001,1781122925504
2013453938,3,-1.3950001,1.81305,9.516001,1781122925515
2013453948,3,-1.098,1.7050501,8.797951,1781122925525
2013453958,3,-0.81600004,1.6999501,8.158051,1781122925535
2013453968,3,-0.57405,1.7050501,7.6270504,1781122925545
2013453978,3,-0.36600003,1.7479501,7.2769504,1781122925555
2013453989,3,-0.20505,1.81305,7.1460004,1781122925565
2013453999,3,-0.13605,1.8870001,7.2250504,1781122925575
2013454009,3,-0.141,1.9810501,7.4400005,1781122925585
2013454019,3,-0.28395,2.019,7.8109503,1781122925595
2013454029,3,-0.46905002,1.9930501,8.247001,1781122925605
2013454039,3,-0.73200005,1.9039501,8.70195,1781122925615
2013454049,3,-1.00695,1.7170501,9.085051,1781122925626
2013454059,3,-1.3399501,1.59,9.387,1781122925635
2013454069,3,-1.5990001,1.485,9.489,1781122925646
2013454079,3,-1.74705,1.521,9.46605,1781122925655
2013454089,3,-1.812,1.65495,9.255,1781122925666
2013454099,3,-1.8240001,1.8730501,8.92695,1781122925676
2013454109,3,-1.7860501,2.1000001,8.628,1781122925686
2013454120,3,-1.7520001,2.3710501,8.38305,1781122925696
2013454130,3,-1.7209501,2.5770001,8.182051,1781122925706
2013454140,3,-1.71105,2.7949502,8.06505,1781122925717
2013454150,3,-1.7760001,3.0340502,7.9690504,1781122925727
2013454160,3,-1.8930001,3.2659502,7.8349504,1781122925736
2013454170,3,-2.04195,3.5100002,7.7440505,1781122925746
2013454180,3,-2.1730502,3.73305,7.6750503,1781122925758
2013454190,3,-2.322,3.9870002,7.6909504,1781122925767
2013454200,3,-2.4850502,4.19805,7.7080503,1781122925777
2013454210,3,-2.5900502,4.40805,7.7230506,1781122925787
2013454220,3,-2.70495,4.6140003,7.7970004,1781122925797
2013454230,3,-2.7820501,4.794,7.8610506,1781122925807
2013454240,3,-2.8560002,4.93305,7.866,1781122925817
2013454250,3,-2.9179502,5.12895,7.9260006,1781122925827
2013454261,3,-3.04305,5.5339503,8.082001,1781122925837
2013454271,3,-3.2940001,5.9809504,8.151,1781122925847
2013454281,3,-3.35595,5.9329505,8.079,1781122925857
2013454291,3,-3.28695,5.8159504,7.8690004,1781122925867
2013454301,3,-3.17895,5.73705,7.6530004,1781122925877
2013454311,3,-3.01095,5.66295,7.4280005,1781122925887
2013454321,3,-2.8290002,5.622,7.227,1781122925898
2013454331,3,-2.631,5.5930505,7.0980005,1781122925907
2013454341,3,-2.45595,5.6250005,7.0789504,1781122925918
2013454351,3,-2.32905,5.622,7.2370505,1781122925928
2013454361,3,-2.2999501,5.5860004,7.4809504,1781122925938
2013454371,3,-2.32905,5.5069504,7.7490005,1781122925948
2013454381,3,-2.334,5.42595,8.07195,1781122925958
2013454392,3,-2.35995,5.3760004,8.35005,1781122925968
2013454402,3,-2.36505,5.289,8.601001,1781122925978
2013454412,3,-2.355,5.20095,8.841001,1781122925988
2013454422,3,-2.3119502,5.1390004,9.166051,1781122925999
2013454432,3,-2.319,5.1070504,9.4150505,1781122926009
2013454442,3,-2.331,5.11695,9.705001,1781122926019
2013454452,3,-2.3389502,5.1340504,9.937051,1781122926028
2013454462,3,-2.3430002,5.21295,10.15995,1781122926039
2013454472,3,-2.3119502,5.3320503,10.323001,1781122926048
2013454482,3,-2.19705,5.4640503,10.38,1781122926059
2013454492,3,-2.05395,5.598,10.452001,1781122926069
2013454502,3,-1.9699501,5.79195,10.59105,1781122926078
2013454512,3,-1.9960501,5.84205,10.861051,1781122926089
2013454522,3,-2.217,5.6580005,11.3209505,1781122926099
2013454533,3,-2.53005,5.4619503,11.922001,1781122926109
2013454543,3,-2.8920002,5.124,12.451051,1781122926122
2013454553,3,-3.18105,4.71705,12.793051,1781122926130
2013454563,3,-3.3780003,4.3320003,12.67605,1781122926139
2013454573,3,-3.354,4.00605,12.264001,1781122926149
2013454583,3,-3.25095,3.76395,11.845051,1781122926159
2013454593,3,-3.1650002,3.522,11.401951,1781122926169
2013454603,3,-3.0859501,3.28095,11.043,1781122926179
2013454613,3,-2.9920502,3.0360003,10.717951,1781122926189
2013454623,3,-2.901,2.7589502,10.347,1781122926199
2013454633,3,-2.80095,2.5170002,9.955951,1781122926210
2013454643,3,-2.7120001,2.29905,9.589951,1781122926220
2013454653,3,-2.676,2.1100502,9.172951,1781122926230
2013454663,3,-2.59995,1.9590001,8.773951,1781122926239
2013454674,3,-2.5399501,1.8730501,8.41905,1781122926250
2013454684,3,-2.4820502,1.8180001,8.094001,1781122926260
2013454694,3,-2.4460502,1.8060001,7.8520503,1781122926270
2013454704,3,-2.4390001,1.8319501,7.6600504,1781122926281
2013454714,3,-2.47305,1.9230001,7.4350505,1781122926290
2013454724,3,-2.4799502,2.0959501,7.2289505,1781122926301
2013454734,3,-2.463,2.4190502,7.0810504,1781122926310
2013454744,3,-2.463,2.84295,6.8770504,1781122926321
2013454754,3,-2.394,3.28095,6.70305,1781122926330
2013454764,3,-2.23095,3.7240503,6.5610003,1781122926340
2013454774,3,-2.07495,4.269,6.4939504,1781122926352
2013454784,3,-1.9290001,4.87995,6.50895,1781122926362
2013454794,3,-1.845,5.6460004,6.6979504,1781122926370
2013454805,3,-1.8499501,6.096,6.73395,1781122926381
2013454815,3,-1.8210001,6.3190503,6.6910505,1781122926392
2013454825,3,-1.7539501,6.4360504,6.6570005,1781122926401
2013454835,3,-1.6870501,6.30495,6.5880003,1781122926411
2013454845,3,-1.623,6.1320004,6.5329504,1781122926421
2013454855,3,-1.5010501,5.9770503,6.60405,1781122926432
2013454865,3,-1.3879501,5.88105,6.7939506,1781122926442
2013454875,3,-1.28295,5.7180004,7.0470004,1781122926450
2013454885,3,-1.21305,5.5290003,7.2319503,1781122926461
2013454895,3,-1.1220001,5.3250003,7.4539504,1781122926471
2013454905,3,-1.0510501,5.13105,7.6909504,1781122926483
2013454915,3,-1.0000501,4.9110003,7.9159503,1781122926491
2013454925,3,-0.97905004,4.71,8.05305,1781122926504
2013454935,3,-0.9670501,4.55205,8.139,1781122926512
2013454946,3,-0.93795,4.3890004,8.194051,1781122926525
2013454956,3,-0.90195006,4.224,8.20905,1781122926534
2013454966,3,-0.88995004,4.08795,8.20395,1781122926541
2013454976,3,-0.83505005,4.0350003,8.22105,1781122926553
2013454986,3,-0.81600004,4.071,8.302051,1781122926562
2013454996,3,-0.79905003,4.1740503,8.424001,1781122926573
2013455006,3,-0.76095,4.353,8.635051,1781122926582
2013455016,3,-0.75105006,4.59,8.865001,1781122926592
2013455026,3,-0.80205005,4.7910004,9.09,1781122926603
2013455036,3,-0.84705,5.004,9.252001,1781122926613
2013455046,3,-0.897,5.1720004,9.336,1781122926623
2013455056,3,-0.90195006,5.3250003,9.38895,1781122926632
2013455066,3,-0.91200006,5.4619503,9.372001,1781122926643
2013455076,3,-0.90195006,5.51205,9.22095,1781122926654
2013455087,3,-0.83295006,5.50005,9.027,1781122926663
2013455097,3,-0.71805006,5.5459504,8.788051,1781122926673
2013455107,3,-0.55695003,5.5579505,8.611051,1781122926683
2013455117,3,-0.42600003,5.5530005,8.40705,1781122926693
2013455127,3,-0.32700002,5.5260005,8.299951,1781122926703
2013455137,3,-0.28695002,5.538,8.26605,1781122926713
2013455147,3,-0.282,5.4910502,8.335051,1781122926723
2013455157,3,-0.25800002,5.5069504,8.467051,1781122926734
2013455167,3,-0.30795002,5.54295,8.70195,1781122926745
2013455177,3,-0.363,5.5620003,8.862,1781122926753
2013455187,3,-0.33,5.6200504,9.121051,1781122926765
2013455197,3,-0.24795002,5.74905,9.418051,1781122926775
2013455207,3,-0.177,5.91405,9.946951,1781122926784
2013455218,3,-0.18105,6.0000005,10.66695,1781122926795
2013455228,3,-0.44700003,5.8350005,11.43105,1781122926805
2013455238,3,-0.86595005,5.43795,12.439051,1781122926814
2013455248,3,-1.39995,4.87995,13.227,1781122926824
2013455258,3,-1.8649501,4.2670503,13.675051,1781122926834
2013455268,3,-2.08995,3.7399502,13.67205,1781122926844
2013455278,3,-2.12295,3.384,13.356001,1781122926855
2013455288,3,-2.0059502,3.14895,12.754951,1781122926864
2013455298,3,-1.8240001,2.9260502,12.015,1781122926875
2013455308,3,-1.6200001,2.6749501,11.188951,1781122926885
2013455318,3,-1.40205,2.45895,10.404,1781122926895
2013455328,3,-1.17495,2.28705,9.63105,1781122926905
2013455338,3,-0.984,2.196,8.953051,1781122926915
2013455348,3,-0.80205005,2.1360002,8.319,1781122926925
2013455359,3,-0.67200005,2.12895,7.833,1781122926935
2013455369,3,-0.591,2.1100502,7.4160004,1781122926945
2013455379,3,-0.591,2.12205,7.0860004,1781122926955
2013455389,3,-0.64395005,2.12895,6.8940005,1781122926965
2013455399,3,-0.74205005,2.196,6.8890505,1781122926975
2013455409,3,-0.87105006,2.2680001,7.0189505,1781122926986
2013455419,3,-1.01205,2.397,7.22205,1781122926995
2013455429,3,-1.17495,2.526,7.5409503,1781122927006
2013455439,3,-1.32105,2.60805,7.8420005,1781122927016
2013455449,3,-1.4770501,2.6800501,8.175,1781122927025
2013455459,3,-1.64205,2.73,8.529,1781122927036
2013455469,3,-1.8049501,2.7589502,8.857051,1781122927045
2013455479,3,-1.9789501,2.7919502,9.03195,1781122927056
2013455490,3,-2.1400502,2.8279502,9.01095,1781122927066
2013455500,3,-2.2360501,2.8930502,8.830951,1781122927076
2013455510,3,-2.25705,2.9980502,8.484,1781122927086
2013455520,3,-2.226,3.1630502,8.170051,1781122927096
2013455530,3,-2.16105,3.3640501,7.8640504,1781122927107
2013455540,3,-2.082,3.6520503,7.6699505,1781122927117
2013455550,3,-2.0989501,3.9750001,7.5979505,1781122927127
2013455560,3,-2.19,4.2379503,7.6750503,1781122927136
2013455570,3,-2.331,4.4950504,7.8760505,1781122927146
2013455580,3,-2.53005,4.7320504,8.118,1781122927157
2013455590,3,-2.73105,5.0160003,8.323951,1781122927166
2013455600,3,-2.94405,5.4,8.6320505,1781122927177
2013455610,3,-3.18105,6.0409503,9.04905,1781122927187
2013455620,3,-3.34695,6.1369505,8.841001,1781122927197
2013455631,3,-3.354,6.09105,8.48205,1781122927207
2013455641,3,-3.28395,6.0700502,8.161051,1781122927219
2013455651,3,-3.177,6.084,8.023951,1781122927227
2013455661,3,-3.009,6.07905,7.9450502,1781122927237
2013455671,3,-2.8510501,6.0319505,7.9930506,1781122927247
2013455681,3,-2.7529502,5.9089503,8.04105,1781122927257
2013455691,3,-2.66895,5.68695,8.059951,1781122927270
2013455701,3,-2.571,5.47095,8.11305,1781122927277
2013455711,3,-2.42505,5.2320004,8.142,1781122927289
2013455721,3,-2.3149502,5.0550003,8.18505,1781122927297
2013455731,3,-2.2069502,4.8559504,8.11995,1781122927308
2013455741,3,-2.1060002,4.6480503,8.059951,1781122927317
2013455751,3,-2.0299501,4.5040503,7.97205,1781122927328
2013455761,3,-1.9630501,4.4160004,7.9260006,1781122927338
2013455772,3,-1.8739501,4.3699503,7.8949504,1781122927348
2013455782,3,-1.82895,4.36305,7.8930006,1781122927357
2013455792,3,-1.7539501,4.32495,7.9140005,1781122927368
2013455802,3,-1.71405,4.368,7.9570503,1781122927378
2013455812,3,-1.67505,4.42005,8.05095,1781122927387
2013455822,3,-1.66305,4.5280504,8.139,1781122927399
2013455832,3,-1.6560001,4.64505,8.24895,1781122927408
2013455842,3,-1.6320001,4.79895,8.3550005,1781122927419
2013455852,3,-1.62495,4.9420505,8.51295,1781122927429
2013455862,3,-1.6540501,5.15805,8.68995,1781122927438
2013455872,3,-1.6969501,5.3920503,8.995951,1781122927449
2013455882,3,-1.7689501,5.742,9.30795,1781122927458
2013455892,3,-1.8739501,6.2140503,9.837001,1781122927470
2013455903,3,-2.049,6.35505,10.15305,1781122927479
2013455913,3,-2.286,6.4120502,10.473001,1781122927489
2013455923,3,-2.5180502,6.3499503,10.903951,1781122927499
2013455933,3,-2.70495,6.1750503,11.34,1781122927509
2013455943,3,-2.8650002,5.9620504,11.734951,1781122927520
2013455953,3,-3.0310502,5.64405,12.001051,1781122927529
2013455963,3,-3.07605,5.32305,12.172951,1781122927540
2013455973,3,-3.078,5.0020504,12.21405,1781122927550
2013455983,3,-3.07095,4.5420003,11.958,1781122927560
2013455993,3,-2.9200501,4.0680003,11.42895,1781122927570
2013456003,3,-2.72895,3.6060002,11.22,1781122927580
2013456013,3,-2.667,3.2329502,10.998,1781122927590
2013456023,3,-2.6520002,2.8159502,10.774951,1781122927599
2013456033,3,-2.6470501,2.42805,10.5379505,1781122927610
2013456044,3,-2.59995,2.08095,10.191001,1781122927620
2013456054,3,-2.5129502,1.7989501,9.765,1781122927630
2013456064,3,-2.39595,1.605,9.264001,1781122927640
2013456074,3,-2.319,1.48695,8.75205,1781122927651
2013456084,3,-2.2450502,1.41795,8.22795,1781122927660
2013456094,3,-2.19705,1.34895,7.7820005,1781122927669
2013456104,3,-2.154,1.3750501,7.4070005,1781122927681
2013456114,3,-2.121,1.4989501,7.1740503,1781122927691
2013456124,3,-2.13,1.6860001,7.0590005,1781122927701
2013456134,3,-2.1760502,1.9350001,7.071,1781122927711
2013456144,3,-2.25495,2.256,7.1700006,1781122927721
2013456154,3,-2.3719501,2.67705,7.3060503,1781122927731
2013456164,3,-2.4769502,3.1420503,7.51905,1781122927741
2013456174,3,-2.56605,3.5989501,7.72695,1781122927752
2013456185,3,-2.6160002,4.071,7.8469505,1781122927761
2013456195,3,-2.6160002,4.52295,7.8229504,1781122927772
2013456205,3,-2.592,5.2320004,7.9810505,1781122927782
2013456215,3,-2.5210502,5.99595,7.9600506,1781122927793
2013456225,3,-2.4820502,6.7309504,7.8229504,1781122927801
2013456235,3,-2.4510002,6.9820504,7.1719503,1781122927811
2013456245,3,-2.29305,7.0080004,6.70305,1781122927822
2013456255,3,-2.0659502,7.0200005,6.24795,1781122927831
2013456265,3,-1.8139501,7.0320005,6.0750003,1781122927842
2013456275,3,-1.5960001,6.9679503,6.0490503,1781122927852
2013456285,3,-1.455,6.7879505,6.1930504,1781122927862
2013456295,3,-1.3549501,6.4860005,6.47805,1781122927873
2013456305,3,-1.23705,6.1849504,6.8320503,1781122927882
2013456316,3,-1.17495,5.8710003,7.2319503,1781122927892
2013456326,3,-1.182,5.538,7.5790505,1781122927902
2013456336,3,-1.1560501,5.2099504,7.7200503,1781122927912
2013456346,3,-1.0860001,4.914,7.866,1781122927922
2013456356,3,-0.97605,4.6480503,7.9279504,1781122927933
2013456366,3,-0.86100006,4.43895,7.9189506,1781122927942
2013456376,3,-0.735,4.2790504,7.905,1781122927953
2013456386,3,-0.63405,4.17105,7.9159503,1781122927962
2013456396,3,-0.55695003,4.032,7.9260006,1781122927973
2013456406,3,-0.47595003,3.90105,7.9600506,1781122927982
2013456416,3,-0.40695003,3.867,8.05305,1781122927993
2013456426,3,-0.33,3.8770502,8.16495,1781122928003
2013456436,3,-0.25305,3.93195,8.295,1781122928012
2013456446,3,-0.19605,4.071,8.46,1781122928024
2013456457,3,-0.165,4.23105,8.71905,1781122928034
2013456467,3,-0.20505,4.4370003,8.962951,1781122928043
2013456477,3,-0.25095,4.6140003,9.19305,1781122928054
2013456487,3,-0.31995,4.71,9.363001,1781122928064
2013456497,3,-0.34695002,4.7080503,9.406051,1781122928074
2013456507,3,-0.35895002,4.662,9.5130005,1781122928084
2013456517,3,-0.33900002,4.6860003,9.604051,1781122928093
2013456527,3,-0.25995,4.8229504,9.727051,1781122928105
2013456537,3,-0.19800001,5.03805,9.901051,1781122928115
2013456547,3,-0.20805001,5.2920003,10.098001,1781122928124
2013456557,3,-0.28905,5.5530005,10.299001,1781122928134
2013456567,3,-0.37500003,5.81895,10.561951,1781122928144
2013456577,3,-0.47100002,6.0360003,10.8490505,1781122928154
2013456588,3,-0.59595,6.2040005,11.10105,1781122928163
2013456598,3,-0.684,6.2299504,11.356951,1781122928174
2013456608,3,-0.744,6.1369505,11.58195,1781122928184
2013456618,3,-0.74595004,6.0649505,11.79705,1781122928194
2013456628,3,-0.77505004,5.97195,12.031951,1781122928204
2013456638,3,-0.864,5.6920505,12.19995,1781122928215
2013456648,3,-0.97905004,5.2819505,12.26895,1781122928224
2013456658,3,-1.0720501,4.83405,12.178051,1781122928235
2013456668,3,-1.0669501,4.41795,12.001051,1781122928244
2013456678,3,-1.04295,3.9820502,11.84805,1781122928255
2013456688,3,-1.06005,3.4750502,11.757001,1781122928264
2013456698,3,-1.1770501,2.9220002,11.689951,1781122928274
2013456708,3,-1.3120501,2.328,11.434051,1781122928284
2013456718,3,-1.35195,1.84695,11.082001,1781122928294
2013456729,3,-1.266,1.48695,10.561951,1781122928305
2013456739,3,-1.074,1.2739501,9.89595,1781122928315
2013456749,3,-0.83505005,1.131,9.160951,1781122928325
2013456759,3,-0.60495,1.056,8.41905,1781122928336
2013456769,3,-0.38295,1.011,7.7490005,1781122928345
2013456779,3,-0.22695,1.0009501,7.2750006,1781122928356
2013456789,3,-0.12195001,1.011,6.98295,1781122928366
2013456799,3,-0.105000004,1.0210501,6.873,1781122928375
2013456809,3,-0.19800001,1.0680001,6.8560505,1781122928385
2013456819,3,-0.32505003,1.179,6.93195,1781122928397
2013456829,3,-0.47805002,1.35105,7.0930505,1781122928406
2013456839,3,-0.62205005,1.5810001,7.359,1781122928416
2013456849,3,-0.804,1.7820001,7.6120505,1781122928426
2013456859,3,-0.99495006,1.94895,7.9360504,1781122928435
2013456870,3,-1.2060001,2.115,8.20395,1781122928446
2013456880,3,-1.43595,2.2699502,8.44305,1781122928456
2013456890,3,-1.6900501,2.421,8.509951,1781122928466
2013456900,3,-1.8570001,2.53605,8.46,1781122928476
2013456910,3,-1.9720501,2.8210502,8.39295,1781122928486
2013456920,3,-2.04705,3.1369503,8.22795,1781122928496
2013456930,3,-2.0989501,3.4309502,8.082001,1781122928506
2013456940,3,-2.15205,3.762,7.9480505,1781122928516
2013456950,3,-2.2050002,4.12305,7.8760505,1781122928526
2013456960,3,-2.26005,4.5259504,7.7970004,1781122928536
2013456970,3,-2.334,4.8679504,7.7250004,1781122928546
2013456980,3,-2.427,5.2270503,7.6699505,1781122928556
2013456990,3,-2.5210502,5.53095,7.63395,1781122928566
2013457001,3,-2.6569502,5.8279505,7.7200503,1781122928577
2013457011,3,-2.832,6.1200004,7.79895,1781122928587
2013457021,3,-3.0330002,6.52995,8.06505,1781122928597
2013457031,3,-3.2440503,6.9750004,8.17695,1781122928607
2013457041,3,-3.3010502,6.8580003,7.9860005,1781122928617
2013457051,3,-3.2340002,6.7429504,7.7389503,1781122928627
2013457061,3,-3.141,6.6829505,7.6440005,1781122928637
2013457071,3,-3.01605,6.5560503,7.5739503,1781122928647
2013457081,3,-2.8270502,6.321,7.5360003,1781122928657
2013457091,3,-2.6119502,6.05595,7.5139503,1781122928667
2013457101,3,-2.4079502,5.74905,7.4689503,1781122928678
2013457111,3,-2.2399502,5.4910502,7.48605,1781122928687
2013457121,3,-2.09205,5.2489505,7.5769506,1781122928697
2013457131,3,-2.0059502,5.0809503,7.6990504,1781122928707
2013457142,3,-1.9560001,4.9450502,7.8370504,1781122928718
2013457152,3,-1.9200001,4.78905,7.9669504,1781122928728
2013457162,3,-1.881,4.65495,8.094001,1781122928739
2013457172,3,-1.82895,4.5469503,8.223001,1781122928748
2013457182,3,-1.79295,4.47795,8.343,1781122928759
2013457192,3,-1.77795,4.42005,8.479051,1781122928769
2013457202,3,-1.7380501,4.39395,8.616,1781122928779
2013457212,3,-1.6969501,4.39905,8.698951,1781122928789
2013457222,3,-1.6510501,4.4539504,8.802,1781122928799
2013457232,3,-1.5769501,4.578,8.89605,1781122928808
2013457242,3,-1.55805,4.73595,8.986951,1781122928818
2013457252,3,-1.539,4.9759502,9.159,1781122928829
2013457262,3,-1.50495,5.28,9.34605,1781122928838
2013457272,3,-1.4500501,5.589,9.51795,1781122928853
2013457283,3,-1.3879501,5.98395,9.736051,1781122928860
2013457293,3,-1.4650501,6.3480005,10.023001,1781122928869
2013457303,3,-1.7500501,6.5059505,10.453951,1781122928879
2013457313,3,-2.13,6.453,11.041051,1781122928889
2013457323,3,-2.5470002,6.29505,11.58405,1781122928899
2013457333,3,-2.94195,6.1009502,11.967001,1781122928909
2013457343,3,-3.2770503,5.8900504,12.109051,1781122928919
2013457353,3,-3.4620001,5.6389503,12.085051,1781122928929
2013457363,3,-3.5740502,5.3640003,11.991,1781122928940
2013457373,3,-3.66,5.0500503,11.862,1781122928950
2013457383,3,-3.732,4.602,11.800051,1781122928959
2013457393,3,-3.76305,4.083,11.611051,1781122928969
2013457403,3,-3.732,3.58995,11.359051,1781122928980
2013457414,3,-3.63105,3.1660502,11.074051,1781122928990
2013457424,3,-3.4399502,2.8140001,10.6050005,1781122929001
2013457434,3,-3.18105,2.53395,10.026,1781122929010
2013457444,3,-2.8890002,2.3110502,9.4150505,1781122929020
2013457454,3,-2.6190002,2.1430502,8.757,1781122929030
2013457464,3,-2.358,1.9879501,8.127001,1781122929040
2013457474,3,-2.1420002,1.8970501,7.5600004,1781122929050
2013457484,3,-1.9480501,1.8870001,7.0930505,1781122929061
2013457494,3,-1.8690001,1.9300501,6.762,1781122929070
2013457504,3,-1.82895,2.04495,6.5329504,1781122929081
2013457514,3,-1.8240001,2.22495,6.4300504,1781122929091
2013457524,3,-1.8910501,2.505,6.3769503,1781122929101
2013457534,3,-1.9720501,2.88105,6.3700504,1781122929112
2013457544,3,-2.05395,3.2659502,6.4080005,1781122929121
2013457555,3,-2.11605,3.62505,6.46995,1781122929131
2013457565,3,-2.13,4.0129504,6.5209503,1781122929141
2013457575,3,-2.121,4.4370003,6.5880003,1781122929151
2013457585,3,-2.14695,4.947,6.6259503,1781122929162
2013457595,3,-2.19,5.8500004,6.9919505,1781122929171
2013457605,3,-2.2810502,6.939,7.5330005,1781122929181
2013457615,3,-2.43,7.5379505,7.8540006,1781122929191
2013457625,3,-2.664,7.4110503,7.45695,1781122929201
2013457635,3,-2.7960002,6.9990005,7.1670003,1781122929211
2013457645,3,-2.7169502,6.6610503,7.0590005,1781122929223
2013457655,3,-2.42205,6.3760505,7.0189505,1781122929231
2013457665,3,-2.0080502,6.16305,6.9210005,1781122929241
2013457675,3,-1.6129501,5.9880004,6.8220005,1781122929253
2013457686,3,-1.31595,5.775,6.7819505,1781122929262
2013457696,3,-1.0530001,5.5339503,6.7860003,1781122929271
2013457706,3,-0.82500005,5.29395,6.9370503,1781122929282
2013457716,3,-0.61995006,5.06895,7.0690503,1781122929292
2013457726,3,-0.507,4.8180003,7.1410503,1781122929301
2013457736,3,-0.44205,4.602,7.1190004,1781122929312
2013457746,3,-0.38700002,4.4110503,7.0470004,1781122929322
2013457756,3,-0.32700002,4.2720003,6.97095,1781122929335
2013457766,3,-0.30405003,4.15005,7.0470004,1781122929343
2013457776,3,-0.30795002,4.08795,7.20795,1781122929353
2013457786,3,-0.37500003,4.06605,7.5090003,1781122929363
2013457796,3,-0.483,4.10895,8.067,1781122929373
2013457806,3,-0.65805006,4.16895,8.656051,1781122929382
2013457816,3,-0.88305,4.2499504,9.160951,1781122929392
2013457827,3,-1.029,4.3390503,9.583051,1781122929403
2013457837,3,-1.1220001,4.41795,9.801001,1781122929412
2013457847,3,-1.2040501,4.51095,9.934951,1781122929423
2013457857,3,-1.197,4.578,9.943951,1781122929433
2013457867,3,-1.1730001,4.6810503,9.97305,1781122929442
2013457877,3,-1.074,4.7959504,9.906,1781122929452
2013457887,3,-0.96405005,4.887,9.78195,1781122929463
2013457897,3,-0.89505005,4.9570503,9.68805,1781122929473
2013457907,3,-0.82095003,4.971,9.624001,1781122929483
2013457917,3,-0.75795,5.0280004,9.65205,1781122929493
2013457927,3,-0.75405,5.11905,9.79395,1781122929503
2013457937,3,-0.82305,5.2969503,9.92805,1781122929513
2013457947,3,-0.897,5.4469504,10.075951,1781122929523
2013457957,3,-0.93105006,5.5459504,10.18605,1781122929533
2013457968,3,-0.88095003,5.70405,10.288951,1781122929543
2013457978,3,-0.83295006,5.8999505,10.428,1781122929553
2013457988,3,-0.85395,5.98395,10.665001,1781122929563
2013457998,3,-0.90900004,5.83995,11.023951,1781122929573
2013458008,3,-1.04595,5.5140004,11.45505,1781122929583
2013458018,3,-1.2730501,5.091,11.982,1781122929593
2013458028,3,-1.48395,4.62405,12.39105,1781122929603
2013458038,3,-1.6680001,4.2169504,12.625951,1781122929615
2013458048,3,-1.7899501,4.00395,12.609,1781122929624
2013458058,3,-1.848,3.8220003,12.43395,1781122929635
2013458068,3,-1.7689501,3.62295,12.18795,1781122929645
2013458078,3,-1.728,3.4080002,11.989051,1781122929655
2013458088,3,-1.6470001,3.11505,11.7640505,1781122929665
2013458099,3,-1.5679501,2.80905,11.484,1781122929675
2013458109,3,-1.4670001,2.4709501,11.09805,1781122929684
2013458119,3,-1.314,2.1700501,10.524,1781122929695
2013458129,3,-1.14195,1.9759501,9.849001,1781122929705
2013458139,3,-0.92100006,1.81305,9.05895,1781122929715
2013458149,3,-0.68205005,1.794,8.328,1781122929725
2013458159,3,-0.40395,1.8370501,7.6870503,1781122929735
2013458169,3,-0.21000001,1.8780001,7.2990003,1781122929746
2013458179,3,-0.12900001,1.9279501,7.1599503,1781122929755
2013458189,3,-0.19095,1.9810501,7.27995,1781122929765
2013458199,3,-0.37095,2.0020502,7.59105,1781122929780
2013458209,3,-0.591,2.06205,7.9740005,1781122929787
2013458219,3,-0.82995003,2.1000001,8.446051,1781122929796
2013458229,3,-1.065,2.088,8.797951,1781122929806
2013458240,3,-1.33095,2.1100502,9.147,1781122929816
2013458250,3,-1.55295,2.079,9.243,1781122929827
2013458260,3,-1.692,2.1049502,9.19995,1781122929836
2013458270,3,-1.7760001,2.196,9.0390005,1781122929846
2013458280,3,-1.8049501,2.289,8.74995,1781122929857
2013458290,3,-1.77795,2.35905,8.36205,1781122929867
2013458300,3,-1.6900501,2.45895,7.9620004,1781122929878
2013458310,3,-1.6159501,2.63895,7.6170006,1781122929886
2013458320,3,-1.572,2.84505,7.3350005,1781122929897
2013458330,3,-1.6110001,3.084,7.11705,1781122929906
2013458340,3,-1.7020501,3.285,6.9900002,1781122929916
2013458350,3,-1.8649501,3.5419502,6.8749504,1781122929927
2013458360,3,-2.07795,3.8190002,6.80595,1781122929937
2013458371,3,-2.3050501,4.056,6.774,1781122929947
2013458381,3,-2.53695,4.31295,6.7980003,1781122929957
2013458391,3,-2.7460501,4.5589504,6.91305,1781122929967
2013458401,3,-2.94,4.827,6.98295,1781122929977
2013458411,3,-3.07395,5.0929503,7.0639505,1781122929987
2013458421,3,-3.18405,5.34705,7.08795,1781122929997
2013458431,3,-3.2700002,5.7109504,7.1839504,1781122930007
2013458441,3,-3.315,5.95695,7.17705,1781122930018
2013458451,3,-3.41595,6.6400504,7.32,1781122930027
2013458461,3,-3.4350002,6.77895,7.0519505,1781122930037
2013458471,3,-3.3060002,6.7120504,6.7390504,1781122930048
2013458481,3,-3.1360502,6.6730504,6.5779505,1781122930058
2013458491,3,-2.9490001,6.5890503,6.5280004,1781122930068
2013458501,3,-2.7769501,6.4240503,6.55905,1781122930078
2013458512,3,-2.59995,6.1920004,6.70695,1781122930088
2013458522,3,-2.4820502,5.9209504,6.9640503,1781122930098
2013458532,3,-2.4540002,5.6340003,7.2250504,1781122930110
2013458542,3,-2.466,5.3250003,7.5769506,1781122930119
2013458552,3,-2.48895,5.031,7.9240503,1781122930128
2013458562,3,-2.5450501,4.7719502,8.25405,1781122930139
2013458572,3,-2.559,4.59705,8.56095,1781122930149
2013458582,3,-2.5540502,4.56405,8.889001,1781122930160
2013458592,3,-2.53695,4.5540004,9.154051,1781122930168
2013458602,3,-2.5090501,4.617,9.430051,1781122930178
2013458612,3,-2.50095,4.6980004,9.67395,1781122930188
2013458622,3,-2.4490502,4.8700504,9.861,1781122930200
2013458632,3,-2.38395,5.076,10.069051,1781122930209
2013458642,3,-2.36505,5.3089504,10.26795,1781122930220
2013458653,3,-2.36295,5.565,10.44705,1781122930229
2013458663,3,-2.262,5.80905,10.62405,1781122930238
2013458673,3,-2.094,6.0049505,10.809001,1781122930249
2013458683,3,-1.9960501,6.2449503,11.079,1781122930260
2013458693,3,-2.1040502,6.3120003,11.45505,1781122930269
2013458703,3,-2.38395,6.0940504,11.862,1781122930278
2013458713,3,-2.6209502,5.7709503,12.24495,1781122930292
2013458723,3,-2.7499502,5.37795,12.55605,1781122930300
2013458733,3,-2.83695,4.959,12.607051,1781122930310
2013458743,3,-2.868,4.51095,12.517951,1781122930320
2013458753,3,-2.83695,4.12605,12.20505,1781122930330
2013458763,3,-2.76195,3.72795,11.818951,1781122930340
2013458773,3,-2.6830502,3.27795,11.553,1781122930349
2013458784,3,-2.59995,2.9329503,11.38605,1781122930360
2013458794,3,-2.5470002,2.6509502,11.199,1781122930370
2013458804,3,-2.52495,2.397,10.939951,1781122930380
2013458814,3,-2.5470002,2.13105,10.59105,1781122930390
2013458824,3,-2.5879502,1.8610501,10.11705,1781122930402
2013458834,3,-2.56095,1.6500001,9.612,1781122930411
2013458844,3,-2.5110002,1.4989501,9.0060005,1781122930421
2013458854,3,-2.47305,1.44,8.39805,1781122930430
2013458864,3,-2.39805,1.45905,7.8349504,1781122930441
2013458874,3,-2.3100002,1.5190501,7.29195,1781122930450
2013458884,3,-2.25,1.6309501,6.8650503,1781122930461
2013458894,3,-2.19,1.7890501,6.5130005,1781122930471
2013458904,3,-2.2069502,1.9710001,6.3120003,1781122930481
2013458914,3,-2.3100002,2.15505,6.2310004,1781122930491
2013458925,3,-2.45805,2.3470502,6.2190003,1781122930501
2013458935,3,-2.6209502,2.60505,6.3150005,1781122930511
2013458945,3,-2.76495,3.039,6.432,1781122930520
2013458955,3,-2.8459501,3.51795,6.55695,1781122930531
2013458965,3,-2.9280002,4.071,6.7219505,1781122930541
2013458975,3,-2.9320502,4.6600504,6.873,1781122930551
2013458985,3,-2.901,5.3880005,7.083,1781122930561
2013458995,3,-2.8819501,6.1270504,7.3060503,1781122930571
2013459005,3,-2.83905,6.834,7.4350505,1781122930582
2013459015,3,-2.7529502,7.1380506,7.25295,1781122930591
2013459025,3,-2.6140501,7.4800506,7.2169504,1781122930601
2013459035,3,-2.45595,7.38,7.0669503,1781122930612
2013459045,3,-2.32905,6.9870005,7.0810504,1781122930622
2013459055,3,-2.217,6.558,7.227,1781122930632
2013459066,3,-2.094,6.1969504,7.51905,1781122930642
2013459076,3,-1.9560001,5.9290504,7.8930006,1781122930652
2013459086,3,-1.8330001,5.6460004,8.125051,1781122930662
2013459096,3,-1.6830001,5.30595,8.139,1781122930672
2013459106,3,-1.5169501,4.93695,8.082001,1781122930683
2013459116,3,-1.3230001,4.6860003,7.9570503,1781122930693
2013459126,3,-1.1730001,4.5160503,7.8180003,1781122930703
2013459136,3,-1.0339501,4.31295,7.72695,1781122930712
2013459146,3,-0.933,4.155,7.6600504,1781122930722
2013459156,3,-0.84900004,3.9580503,7.66695,1781122930732
2013459166,3,-0.78495,3.7830002,7.689,1781122930742
2013459176,3,-0.74895006,3.6469502,7.7419505,1781122930752
2013459186,3,-0.70605004,3.5299501,7.8090005,1781122930763
2013459197,3,-0.64395005,3.5269501,8.047951,1781122930774
2013459207,3,-0.54300004,3.58695,8.302051,1781122930783
2013459217,3,-0.483,3.7090502,8.58405,1781122930794
2013459227,3,-0.48105,3.9150002,8.920051,1781122930803
2013459237,3,-0.54495,4.20195,9.387,1781122930813
2013459247,3,-0.61200005,4.43205,9.80595,1781122930823
2013459257,3,-0.64605004,4.49895,9.79395,1781122930835
2013459267,3,-0.61200005,4.43505,9.78195,1781122930845
2013459277,3,-0.54300004,4.41795,9.717,1781122930854
2013459287,3,-0.43800002,4.485,9.66705,1781122930865
2013459297,3,-0.31995,4.6000504,9.589951,1781122930874
2013459307,3,-0.19305001,4.74405,9.561001,1781122930883
2013459317,3,-0.094950005,4.95405,9.595051,1781122930895
2013459327,3,-0.058950003,5.2099504,9.736051,1781122930904
2013459338,3,-0.126,5.41095,9.934951,1781122930914
2013459348,3,-0.23895001,5.517,10.189051,1781122930925
2013459358,3,-0.30600002,5.60505,10.485001,1781122930935
2013459368,3,-0.36600003,5.7660003,10.78005,1781122930945
2013459378,3,-0.43800002,5.85405,11.11005,1781122930955
2013459388,3,-0.555,5.7730503,11.46195,1781122930964
2013459398,3,-0.68700004,5.5410004,11.922001,1781122930974
2013459408,3,-0.87105006,5.196,12.424951,1781122930984
2013459418,3,-1.1560501,4.7629504,12.777,1781122930995
2013459428,3,-1.5010501,4.257,12.93,1781122931004
2013459438,3,-1.6990501,3.798,12.8869505,1781122931015
2013459448,3,-1.7040001,3.42405,12.640051,1781122931025
2013459458,3,-1.623,3.1609502,12.363001,1781122931035
2013459469,3,-1.55805,2.8260002,12.030001,1781122931045
2013459479,3,-1.52505,2.4139502,11.689951,1781122931055
2013459489,3,-1.4430001,2.02095,11.206051,1781122931065
2013459499,3,-1.27995,1.7680501,10.665001,1781122931075
2013459509,3,-1.0510501,1.59,9.954,1781122931085
2013459519,3,-0.83295006,1.4899501,9.25695,1781122931095
2013459529,3,-0.57405,1.4299501,8.48205,1781122931105
2013459539,3,-0.35895002,1.45395,7.7370005,1781122931117
2013459549,3,-0.165,1.485,7.1380506,1781122931126
2013459559,3,-0.06705,1.53795,6.7390504,1781122931136
2013459569,3,-0.061950002,1.6000501,6.57105,1781122931146
2013459579,3,-0.141,1.64505,6.6450005,1781122931156
2013459589,3,-0.29895002,1.6840501,6.8440504,1781122931166
2013459599,3,-0.483,1.779,7.122,1781122931176
2013459610,3,-0.70605004,1.84695,7.38495,1781122931186
2013459620,3,-0.97395,1.9159501,7.63605,1781122931197
2013459630,3,-1.2040501,1.9729501,7.9120502,1781122931206
2013459640,3,-1.4479501,2.05695,8.19705,1781122931216
2013459650,3,-1.6129501,2.1340501,8.400001,1781122931226
2013459660,3,-1.7500501,2.25105,8.505,1781122931236
2013459670,3,-1.8649501,2.39205,8.53905,1781122931246
2013459680,3,-1.9699501,2.5530002,8.46195,1781122931257
2013459690,3,-2.0700002,2.7439501,8.314051,1781122931266
2013459700,3,-2.11395,2.97405,8.14605,1781122931277
2013459710,3,-2.14905,3.18195,7.9600506,1781122931288
2013459720,3,-2.21895,3.4050002,7.8300004,1781122931298
2013459730,3,-2.2740002,3.6130502,7.7370005,1781122931306
2013459740,3,-2.355,3.85995,7.6909504,1781122931317
2013459751,3,-2.4420002,4.15005,7.7470503,1781122931327
2013459761,3,-2.6209502,4.413,7.8300004,1781122931337
2013459771,3,-2.77905,4.566,7.9360504,1781122931347
2013459781,3,-2.9869502,4.7410502,8.022,1781122931358
2013459791,3,-3.21495,4.9489503,8.13195,1781122931367
2013459801,3,-3.5070002,5.49795,8.41005,1781122931377
2013459811,3,-3.7060502,5.7319503,8.39505,1781122931387
2013459821,3,-3.7339501,5.802,8.26605,1781122931398
2013459831,3,-3.6820502,5.907,8.058001,1781122931407
2013459841,3,-3.59805,5.9740505,7.8469505,1781122931417
2013459851,3,-3.4380002,5.979,7.6770005,1781122931428
2013459861,3,-3.25305,5.9170504,7.5379505,1781122931437
2013459871,3,-3.05205,5.76795,7.4470506,1781122931448
2013459882,3,-2.8530002,5.5600505,7.4160004,1781122931458
2013459892,3,-2.67105,5.361,7.48995,1781122931467
2013459902,3,-2.52795,5.1769505,7.6170006,1781122931478
2013459912,3,-2.4420002,4.947,7.8109503,1781122931488
2013459922,3,-2.35995,4.72695,7.9759502,1781122931498
2013459932,3,-2.29605,4.54005,8.151,1781122931508
2013459942,3,-2.226,4.353,8.328,1781122931519
2013459952,3,-2.18805,4.2340503,8.484,1781122931528
2013459962,3,-2.1420002,4.176,8.668051,1781122931538
2013459972,3,-2.11605,4.1470504,8.877001,1781122931548
2013459982,3,-2.0989501,4.1449504,9.02295,1781122931559
2013459992,3,-2.08995,4.15695,9.20205,1781122931568
2013460002,3,-2.061,4.24095,9.396001,1781122931578
2013460012,3,-2.061,4.3390503,9.595051,1781122931588
2013460023,3,-2.0350502,4.49895,9.87495,1781122931599
2013460033,3,-2.058,4.7410502,10.083,1781122931609
2013460043,3,-2.0730002,5.076,10.35105,1781122931619
2013460053,3,-2.1019502,5.5140004,10.737,1781122931629
2013460063,3,-2.25495,6.0529504,11.218051,1781122931639
2013460073,3,-2.571,6.4360504,11.668051,1781122931649
2013460083,3,-2.8890002,6.5560503,12.019951,1781122931659
2013460093,3,-3.1650002,6.3499503,12.310051,1781122931669
2013460103,3,-3.41805,5.98605,12.585001,1781122931680
2013460113,3,-3.5719502,5.5909505,12.837001,1781122931689
2013460123,3,-3.6340501,5.1649504,12.83205,1781122931700
2013460133,3,-3.56205,4.8130503,12.573001,1781122931710
2013460143,3,-3.3919501,4.48005,12.151951,1781122931719
2013460153,3,-3.141,4.131,11.790001,1781122931730
2013460164,3,-2.9539502,3.7759502,11.541,1781122931739
2013460174,3,-2.8129501,3.4000502,11.31105,1781122931749
2013460184,3,-2.7169502,2.9980502,11.06505,1781122931760
2013460194,3,-2.63295,2.59395,10.77,1781122931770
2013460204,3,-2.50395,2.22495,10.34895,1781122931781
2013460214,3,-2.3790002,1.9399501,9.873,1781122931790
2013460224,3,-2.25,1.7029501,9.274051,1781122931801
2013460234,3,-2.085,1.4989501,8.677951,1781122931811
2013460244,3,-1.9440001,1.34595,8.125051,1781122931821
2013460254,3,-1.812,1.30095,7.63605,1781122931831
2013460264,3,-1.7040001,1.31505,7.2700505,1781122931841
2013460274,3,-1.6350001,1.4059501,7.0260005,1781122931853
2013460284,3,-1.6510501,1.49205,6.7650003,1781122931863
2013460295,3,-1.6510501,1.6170001,6.6259503,1781122931871
2013460305,3,-1.6470001,1.7869501,6.5209503,1781122931882
2013460315,3,-1.728,1.9950001,6.4870505,1781122931892
2013460325,3,-1.7659501,2.15505,6.4339504,1781122931901
2013460335,3,-1.76205,2.3130002,6.3790503,1781122931911
2013460345,3,-1.74495,2.565,6.3409505,1781122931922
2013460355,3,-1.7020501,2.88105,6.3460503,1781122931931
2013460365,3,-1.6609501,3.27795,6.3079505,1781122931941
2013460375,3,-1.5630001,3.7399502,6.2719502,1781122931952
2013460385,3,-1.5010501,4.2979503,6.3960004,1781122931961
2013460395,3,-1.5289501,6.70695,7.93095,1781122931972
2013460405,3,-1.98195,6.5179505,7.5480003,1781122931981
2013460415,3,-2.16105,6.4339504,7.4779506,1781122931992
2013460425,3,-2.09205,6.52995,7.4710503,1781122932002
2013460436,3,-2.0680501,6.6660004,7.5019503,1781122932013
2013460446,3,-1.9890001,6.8380504,7.5120006,1781122932022
2013460456,3,-1.8259501,7.03695,7.4929504,1781122932032
2013460466,3,-1.6320001,7.0680003,7.4329505,1781122932042
2013460476,3,-1.434,6.8980503,7.38,1781122932052
2013460486,3,-1.24395,6.66795,7.4020505,1781122932062
2013460496,3,-1.074,6.35505,7.5120006,1781122932073
2013460506,3,-0.93105006,6.0049505,7.701,1781122932082
2013460516,3,-0.85905004,5.637,7.8949504,1781122932093
2013460526,3,-0.79695004,5.208,8.07705,1781122932103
2013460536,3,-0.73005,4.8109503,8.20605,1781122932113
2013460546,3,-0.68205005,4.48005,8.316,1781122932123
2013460556,3,-0.62700003,4.2169504,8.41005,1781122932133
2013460567,3,-0.56700003,3.9460502,8.503051,1781122932143
2013460577,3,-0.531,3.726,8.70195,1781122932153
2013460587,3,-0.52095,3.6330001,8.962951,1781122932163
2013460597,3,-0.56205004,3.594,9.271951,1781122932173
2013460607,3,-0.64395005,3.5779502,9.48705,1781122932183
2013460617,3,-0.744,3.6180003,9.65205,1781122932194
2013460627,3,-0.804,3.6660001,9.721951,1781122932204
2013460637,3,-0.79395,3.7519503,9.65505,1781122932214
2013460647,3,-0.72,3.9250503,9.4800005,1781122932226
2013460657,3,-0.60495,4.092,9.229051,1781122932234
2013460667,3,-0.45405003,4.30095,8.98005,1781122932245
2013460677,3,-0.28395,4.55205,8.778001,1781122932256
2013460687,3,-0.16695,4.794,8.72295,1781122932263
2013460697,3,-0.10695001,4.99695,8.680051,1781122932273
2013460708,3,-0.08595,5.21505,8.73795,1781122932284
2013460718,3,-0.105000004,5.49795,8.91495,1781122932295
2013460728,3,-0.18405001,5.7630005,9.135,1781122932304
2013460738,3,-0.31095,5.859,9.40305,1781122932314
2013460748,3,-0.33,5.9359503,9.7240505,1781122932324
2013460758,3,-0.37305,5.99805,10.078051,1781122932335
2013460768,3,-0.51405,5.8759503,10.632001,1781122932345
2013460778,3,-0.76605004,5.4859505,11.187,1781122932355
2013460788,3,-1.0699501,4.83405,11.776051,1781122932364
2013460798,3,-1.371,4.3219504,12.424951,1781122932375
2013460808,3,-1.6680001,3.96495,12.966001,1781122932384
2013460818,3,-1.8859501,3.58995,13.114051,1781122932394
2013460828,3,-1.9939501,3.321,12.849001,1781122932405
2013460838,3,-1.89795,3.20895,12.3820505,1781122932415
2013460849,3,-1.6870501,3.1030502,11.869051,1781122932425
2013460859,3,-1.455,2.93805,11.343,1781122932435
2013460869,3,-1.2919501,2.7109501,11.022,1781122932444
2013460879,3,-1.2040501,2.4120002,10.722,1781122932454
2013460889,3,-1.16805,2.112,10.387051,1781122932464
2013460899,3,-1.1340001,1.8250501,9.925051,1781122932474
2013460909,3,-1.0390501,1.674,9.295951,1781122932485
2013460919,3,-0.873,1.72695,8.656051,1781122932495
2013460929,3,-0.68895006,1.8559501,8.06505,1781122932505
2013460939,3,-0.531,2.0310001,7.6510506,1781122932516
2013460949,3,-0.45000002,2.18205,7.3279505,1781122932526
2013460959,3,-0.41595003,2.3800502,7.2319503,1781122932536
2013460969,3,-0.46395,2.55795,7.3060503,1781122932546
2013460980,3,-0.53295004,2.7160501,7.5049505,1781122932556
2013460990,3,-0.70605004,2.8210502,7.7820005,1781122932566
2013461000,3,-0.87600005,2.811,8.12205,1781122932577
2013461010,3,-1.146,2.70795,8.52495,1781122932586
2013461020,3,-1.4119501,2.562,8.877001,1781122932596
2013461030,3,-1.59405,2.4499502,9.1380005,1781122932606
2013461040,3,-1.6969501,2.3779502,9.231001,1781122932616
2013461050,3,-1.7500501,2.352,9.19305,1781122932626
2013461060,3,-1.70895,2.3730001,9.02295,1781122932636
2013461070,3,-1.6870501,2.4829502,8.680051,1781122932647
2013461080,3,-1.6510501,2.60295,8.20605,1781122932657
2013461090,3,-1.6320001,2.8540502,7.8229504,1781122932666
2013461100,3,-1.6180501,3.0580502,7.5790505,1781122932677
2013461110,3,-1.6129501,3.21795,7.4830503,1781122932687
2013461121,3,-1.7160001,3.3310502,7.6000504,1781122932696
2013461131,3,-1.9030501,3.42405,7.8160505,1781122932707
2013461141,3,-2.1330001,3.4630501,8.094001,1781122932717
2013461151,3,-2.322,3.5010002,8.338051,1781122932727
2013461161,3,-2.571,3.5629501,8.589001,1781122932738
2013461171,3,-2.7840002,3.6210003,8.769,1781122932747
2013461181,3,-2.9320502,3.7120502,8.86005,1781122932758
2013461191,3,-3.01095,3.8839502,8.830951,1781122932767
2013461201,3,-3.0570002,4.06395,8.71395,1781122932778
2013461211,3,-3.0280502,4.3170004,8.60805,1781122932789
2013461221,3,-3.0229502,4.64295,8.553,1781122932797
2013461231,3,-3.0900002,4.914,8.509951,1781122932808
2013461241,3,-3.14805,5.1150002,8.371051,1781122932818
2013461251,3,-3.14295,5.30595,8.292001,1781122932828
2013461262,3,-3.10695,5.42805,8.188951,1781122932838
2013461272,3,-3.0589502,5.5260005,8.07495,1781122932848
2013461282,3,-2.9920502,5.5909505,7.9620004,1781122932860
2013461292,3,-2.91105,5.5860004,7.8850503,1781122932868
2013461302,3,-2.80095,5.50995,7.8829503,1781122932879
2013461312,3,-2.6910002,5.3110504,7.905,1781122932888
2013461322,3,-2.6160002,5.11695,7.9549503,1781122932898
2013461332,3,-2.5729501,4.8900003,8.019,1781122932908
2013461342,3,-2.49405,4.72695,8.13195,1781122932919
2013461352,3,-2.4150002,4.5810003,8.199,1781122932928
2013461362,3,-2.319,4.4539504,8.268001,1781122932939
2013461372,3,-2.2020001,4.3890004,8.343,1781122932949
2013461382,3,-2.1060002,4.37505,8.488951,1781122932959
2013461393,3,-2.01495,4.62405,8.88405,1781122932969
2013461403,3,-2.01495,4.74405,9.02295,1781122932979
2013461413,3,-2.02305,4.79895,9.231001,1781122932989
2013461423,3,-1.9990501,4.842,9.49905,1781122932999
2013461433,3,-1.9750501,4.87995,9.87495,1781122933009
2013461443,3,-1.9560001,5.03805,10.32705,1781122933020
2013461453,3,-2.0299501,5.23005,10.91205,1781122933029
2013461463,3,-2.26395,5.18895,11.493001,1781122933040
2013461473,3,-2.59995,5.0020504,11.994,1781122933049
2013461483,3,-2.8579502,4.767,12.385951,1781122933059
2013461493,3,-3.0229502,4.5880504,12.65505,1781122933070
2013461503,3,-3.0690002,4.413,12.784051,1781122933080
2013461513,3,-3.0330002,4.308,12.748051,1781122933090
2013461523,3,-2.97105,4.19805,12.585001,1781122933100
2013461534,3,-2.94405,3.9490502,12.255,1781122933110
2013461544,3,-2.8939502,3.6540003,11.88105,1781122933121
2013461554,3,-2.772,3.4000502,11.47395,1781122933131
2013461564,3,-2.6860502,3.015,11.395051,1781122933140
2013461574,3,-2.71005,2.8140001,10.79895,1781122933151
2013461584,3,-2.607,2.469,10.383,1781122933161
2013461594,3,-2.4439502,2.2030501,9.894,1781122933170
2013461604,3,-2.3070002,2.08095,9.36705,1781122933180
2013461614,3,-2.20005,1.983,8.802,1781122933191
2013461624,3,-2.11095,1.9260001,8.24895,1781122933201
2013461634,3,-2.0659502,1.8420001,7.7779503,1781122933211
2013461644,3,-2.0389502,1.8079501,7.4040003,1781122933221
2013461654,3,-2.121,1.8420001,7.1340003,1781122933231
2013461665,3,-2.226,1.8580501,6.9300003,1781122933241
2013461675,3,-2.35305,1.9300501,6.84105,1781122933251
2013461685,3,-2.523,2.02605,6.846,1781122933262
2013461695,3,-2.6860502,2.115,7.0330505,1781122933271
2013461705,3,-2.8840501,2.2150502,7.215,1781122933280
2013461715,3,-3.078,2.352,7.3230004,1781122933292
2013461725,3,-3.18405,2.505,7.35405,1781122933301
2013461735,3,-3.18105,2.6869502,7.3110003,1781122933311
2013461745,3,-3.1020002,3.04095,7.22205,1781122933322
2013461755,3,-2.877,3.525,7.0309505,1781122933331
2013461765,3,-2.631,4.09005,6.77895,1781122933342
2013461775,3,-2.36295,4.722,6.58995,1781122933352
2013461785,3,-2.1730502,5.4619503,6.6070504,1781122933362
2013461795,3,-2.058,6.6589503,7.0210505,1781122933371
2013461806,3,-2.0730002,7.2259502,7.122,1781122933382
2013461816,3,-2.1330001,7.38,7.1620502,1781122933393
2013461826,3,-2.1060002,7.3960505,7.1190004,1781122933402
2013461836,3,-2.0350502,7.2649503,7.20795,1781122933412
2013461846,3,-1.9459502,7.4370003,7.6000504,1781122933422
2013461856,3,-1.9030501,7.1280003,7.7800503,1781122933433
2013461866,3,-1.8240001,6.747,8.019,1781122933443
2013461876,3,-1.692,6.3760505,8.314051,1781122933452
2013461886,3,-1.5460501,6.0079503,8.57505,1781122933462
2013461896,3,-1.4170501,5.60295,8.647051,1781122933473
2013461906,3,-1.2610501,5.1979504,8.70195,1781122933483
2013461916,3,-1.077,4.8439503,8.69505,1781122933493
2013461926,3,-0.91395,4.5420003,8.674951,1781122933504
2013461936,3,-0.73005,4.31505,8.62005,1781122933513
2013461947,3,-0.58395004,4.09905,8.5990505,1781122933523
2013461957,3,-0.423,3.90105,8.56095,1781122933533
2013461967,3,-0.30405003,3.7360501,8.533951,1781122933543
2013461977,3,-0.20295002,3.6040502,8.509951,1781122933553
2013461987,3,-0.14595,3.4990501,8.53695,1781122933564
2013461997,3,-0.06705,3.4459503,8.58405,1781122933574
2013462007,3,-0.0139500005,3.417,8.68995,1781122933583
2013462017,3,0.028050002,3.4510503,8.809951,1781122933593
2013462027,3,0.081,3.5010002,8.901,1781122933604
2013462037,3,0.13095,3.561,8.91495,1781122933614
2013462047,3,0.16005,3.6760502,8.958,1781122933623
2013462057,3,0.19095,3.76395,9.003,1781122933634
2013462067,3,0.21300001,3.8839502,9.075001,1781122933644
2013462078,3,0.16995001,3.97305,9.207001,1781122933654
2013462088,3,0.10005,4.044,9.36495,1781122933664
2013462098,3,0.028050002,4.1280003,9.51795,1781122933674
2013462108,3,-0.058950003,4.2259502,9.670951,1781122933684
2013462118,3,-0.16695,4.3560004,9.74295,1781122933694
2013462128,3,-0.22695,4.54005,9.817051,1781122933704
2013462138,3,-0.23205002,4.7580004,10.002001,1781122933714
2013462148,3,-0.25305,4.9830003,10.248,1781122933724
2013462158,3,-0.35595003,5.15805,10.63395,1781122933734
2013462168,3,-0.58395004,5.2099504,11.170051,1781122933745
2013462178,3,-0.84705,5.1600003,11.74995,1781122933755
2013462188,3,-1.197,5.00895,12.271951,1781122933765
2013462198,3,-1.55595,4.72695,12.705001,1781122933774
2013462208,3,-1.8379501,4.4610004,12.87195,1781122933786
2013462219,3,-1.9410001,4.30095,12.74295,1781122933795
2013462229,3,-1.8840001,4.22895,12.432,1781122933806
2013462239,3,-1.728,4.176,12.04905,1781122933815
2013462249,3,-1.55295,4.0080004,11.70705,1781122933825
2013462259,3,-1.4580001,3.7360501,11.491051,1781122933835
2013462269,3,-1.44105,3.357,11.352,1781122933847
2013462279,3,-1.43805,2.9599502,11.079,1781122933855
2013462289,3,-1.4580001,2.5819502,10.732051,1781122933866
2013462299,3,-1.4070001,2.2339501,10.227,1781122933876
2013462309,3,-1.3230001,2.01195,9.540001,1781122933887
2013462319,3,-1.1530501,1.88205,8.85495,1781122933895
2013462329,3,-0.96000004,1.8559501,8.191951,1781122933905
2013462339,3,-0.75600004,1.863,7.6770005,1781122933917
2013462349,3,-0.64095,1.8559501,7.2840004,1781122933926
2013462360,3,-0.615,1.87995,7.0860004,1781122933936
2013462370,3,-0.60300004,1.87995,7.0470004,1781122933946
2013462380,3,-0.63900006,1.9470001,7.1599503,1781122933955
2013462390,3,-0.708,2.00895,7.38495,1781122933965
2013462400,3,-0.80205005,2.115,7.6600504,1781122933976
2013462410,3,-0.93600005,2.13105,8.04105,1781122933986
2013462420,3,-1.1220001,2.1340501,8.424001,1781122933996
2013462430,3,-1.36905,2.0760002,8.800051,1781122934007
2013462440,3,-1.5840001,1.9519501,9.08205,1781122934016
2013462450,3,-1.7569501,1.899,9.127951,1781122934026
2013462460,3,-1.881,1.94895,9.075001,1781122934037
2013462470,3,-1.9579501,2.02395,8.95995,1781122934047
2013462480,3,-1.9960501,2.1100502,8.802,1781122934057
2013462491,3,-2.013,2.23005,8.625,1781122934068
2013462501,3,-2.0370002,2.421,8.3209505,1781122934077
2013462511,3,-2.05605,2.637,8.106,1781122934087
2013462521,3,-2.1019502,2.8830001,7.9930506,1781122934098
2013462531,3,-2.181,3.108,7.9810505,1781122934107
2013462541,3,-2.2999501,3.3259501,8.0119505,1781122934119
2013462551,3,-2.4490502,3.5370002,8.067,1781122934129
2013462561,3,-2.60205,3.8170502,8.08905,1781122934138
2013462571,3,-2.7150002,4.071,8.017051,1781122934147
2013462581,3,-2.7910502,4.3099504,7.8420005,1781122934158
2013462591,3,-2.7859502,4.5880504,7.62195,1781122934168
2013462601,3,-2.7460501,4.92495,7.3680005,1781122934178
2013462611,3,-2.7499502,5.46705,7.2750006,1781122934188
2013462621,3,-2.9320502,6.34005,7.3489504,1781122934198
2013462632,3,-3.0619502,6.5730004,7.3080006,1781122934208
2013462642,3,-3.10695,6.7759504,7.3320003,1781122934219
2013462652,3,-3.1189501,6.9250503,7.4400005,1781122934228
2013462662,3,-3.1330502,7.0350003,7.5810003,1781122934238
2013462672,3,-3.15,7.0009503,7.7029505,1781122934248
2013462682,3,-3.141,6.8620505,7.8469505,1781122934258
2013462692,3,-3.0930002,6.6400504,8.06295,1781122934269
2013462702,3,-3.00705,6.3169503,8.224951,1781122934279
2013462712,3,-2.94,5.9329505,8.37405,1781122934291
2013462722,3,-2.8129501,5.5360503,8.541,1781122934299
2013462732,3,-2.676,5.1790504,8.677951,1781122934309
2013462742,3,-2.5729501,4.8109503,8.745001,1781122934318
2013462752,3,-2.43,4.533,8.73495,1781122934329
2013462763,3,-2.25,4.4490004,8.74995,1781122934340
2013462773,3,-2.082,4.4419503,8.77095,1781122934348
2013462783,3,-1.9390501,4.46295,8.788051,1781122934358
2013462793,3,-1.8169501,4.48005,8.797951,1781122934369
2013462803,3,-1.67505,4.55205,8.817,1781122934380
2013462813,3,-1.5370501,4.6480503,8.922001,1781122934389
2013462823,3,-1.4580001,4.782,8.983951,1781122934399
2013462833,3,-1.33095,4.9279504,9.114,1781122934409
2013462843,3,-1.218,5.14095,9.331051,1781122934420
2013462853,3,-1.16295,5.3370004,9.616051,1781122934430
2013462863,3,-1.28295,5.4040504,9.99495,1781122934440
2013462873,3,-1.5769501,5.3590503,10.545,1781122934450
2013462883,3,-1.9240501,5.2270503,11.215951,1781122934459
2013462893,3,-2.2429502,5.0719504,11.79705,1781122934470
2013462904,3,-2.48895,4.92495,12.121051,1781122934481
2013462914,3,-2.63805,4.8559504,12.147,1781122934490
2013462924,3,-2.628,4.83405,12.003,1781122934500
2013462934,3,-2.5729501,4.8370504,11.72595,1781122934510
2013462944,3,-2.48895,4.71705,11.413951,1781122934521
2013462954,3,-2.4420002,4.506,11.218051,1781122934530
2013462964,3,-2.40105,4.24305,11.079,1781122934541
2013462974,3,-2.4460502,3.89805,10.906951,1781122934551
2013462984,3,-2.47005,3.4789503,10.7029505,1781122934561
2013462994,3,-2.4750001,3.0240002,10.404,1781122934572
2013463004,3,-2.41995,2.6530502,10.071,1781122934582
2013463014,3,-2.334,2.36595,9.646951,1781122934591
2013463024,3,-2.22405,2.0959501,9.217051,1781122934601
2013463034,3,-2.12295,1.899,8.742001,1781122934611
2013463045,3,-2.049,1.7530501,8.268001,1781122934621
2013463055,3,-1.9560001,1.66005,7.8760505,1781122934631
2013463065,3,-1.89795,1.6500001,7.52895,1781122934642
2013463075,3,-1.881,1.72395,7.24095,1781122934651
2013463085,3,-1.8889501,1.8030001,7.04295,1781122934661
2013463095,3,-1.9440001,1.9380001,6.9210005,1781122934671
2013463105,3,-2.025,2.0760002,6.8269506,1781122934681
2013463115,3,-2.1379502,2.22705,6.8200502,1781122934691
2013463125,3,-2.25705,2.4090002,6.9090004,1781122934702
2013463135,3,-2.3430002,2.5819502,7.0519505,1781122934711
2013463145,3,-2.3820002,2.8540502,7.14795,1781122934721
2013463155,3,-2.3790002,3.24195,7.22205,1781122934733
2013463165,3,-2.3460002,3.6760502,7.24095,1781122934749
2013463176,3,-2.2740002,4.15005,7.1929502,1781122934751
2013463186,3,-2.18505,4.66905,7.1530504,1781122934762
2013463196,3,-2.08995,5.39505,7.3039503,1781122934772
2013463206,3,-2.07795,7.0920005,8.23695,1781122934782
2013463216,3,-2.3070002,7.3219504,7.8970504,1781122934792
2013463226,3,-2.4439502,7.3009505,7.5739503,1781122934802
2013463236,3,-2.3700001,7.2910504,7.4140506,1781122934813
2013463246,3,-2.262,7.2289505,7.3080006,1781122934823
2013463256,3,-2.0269501,7.25295,7.1790004,1781122934833
2013463266,3,-1.7500501,7.2070503,7.143,1781122934843
2013463276,3,-1.4500501,6.9700503,7.2030005,1781122934853
2013463286,3,-1.2420001,6.63,7.31295,1781122934862
2013463296,3,-1.05795,6.2419505,7.4760003,1781122934875
2013463306,3,-0.88305,5.7780004,7.7299504,1781122934883
2013463317,3,-0.73905003,5.34,8.014951,1781122934894
2013463327,3,-0.62205005,4.9180503,8.21595,1781122934903
2013463337,3,-0.48105,4.56195,8.376,1781122934913
2013463347,3,-0.37500003,4.2769504,8.47395,1781122934923
2013463357,3,-0.26295,4.0350003,8.509951,1781122934933
2013463367,3,-0.141,3.8740501,8.568001,1781122934943
2013463377,3,-0.08595,3.7380002,8.6320505,1781122934954
2013463387,3,-0.031050002,3.63,8.745001,1781122934964
2013463397,3,0.0,3.5800502,8.92695,1781122934973
2013463407,3,-0.009000001,3.558,9.05595,1781122934983
2013463417,3,-0.06705,3.5749502,9.252001,1781122934993
2013463427,3,-0.105000004,3.6520503,9.360001,1781122935004
2013463437,3,-0.162,3.7930503,9.436951,1781122935014
2013463447,3,-0.177,3.999,9.40095,1781122935024
2013463458,3,-0.21705002,4.24095,9.328951,1781122935034
2013463468,3,-0.20295002,4.48005,9.18795,1781122935044
2013463478,3,-0.20805001,4.70505,9.097051,1781122935054
2013463488,3,-0.21495001,4.9159503,9.087001,1781122935064
2013463498,3,-0.26505002,5.09805,9.16905,1781122935074
2013463508,3,-0.33900002,5.2920003,9.34095,1781122935085
2013463518,3,-0.45195,5.4910502,9.549001,1781122935094
2013463528,3,-0.56895,5.6530504,9.777,1781122935105
2013463538,3,-0.65295005,5.74905,10.05195,1781122935115
2013463548,3,-0.70605004,5.8639503,10.33905,1781122935126
2013463558,3,-0.78495,5.94105,10.675051,1781122935136
2013463568,3,-0.93105006,5.9089503,11.026951,1781122935145
2013463578,3,-1.07895,5.6920505,11.448001,1781122935155
2013463589,3,-1.1850001,5.41095,11.877001,1781122935165
2013463599,3,-1.3090501,5.1270003,12.280951,1781122935175
2013463609,3,-1.4479501,4.83405,12.516001,1781122935185
2013463619,3,-1.5630001,4.46805,12.55605,1781122935196
2013463629,3,-1.5820501,4.0729504,12.456,1781122935205
2013463639,3,-1.51995,3.73095,12.340951,1781122935215
2013463649,3,-1.4809501,3.3409503,12.1369505,1781122935226
2013463659,3,-1.4500501,2.9170501,11.92905,1781122935235
2013463669,3,-1.3909501,2.4019501,11.62005,1781122935245
2013463679,3,-1.26405,1.9710001,11.103001,1781122935255
2013463689,3,-1.098,1.626,10.435051,1781122935266
2013463699,3,-0.91905004,1.4440501,9.645,1781122935276
2013463709,3,-0.65295005,1.284,8.86005,1781122935288
2013463719,3,-0.33195,1.2580501,8.26095,1781122935297
2013463730,3,-0.078,1.3290001,7.7509503,1781122935306
2013463740,3,0.117000006,1.4320501,7.464,1781122935317
2013463750,3,0.17400001,1.50195,7.3420506,1781122935326
2013463760,3,0.18405001,1.554,7.3710003,1781122935337
2013463770,3,0.08295,1.5979501,7.45695,1781122935345
2013463780,3,-0.043050002,1.66005,7.5480003,1781122935357
2013463790,3,-0.21705002,1.7509501,7.6990504,1781122935366
2013463800,3,-0.40695003,1.8250501,7.938,1781122935376
2013463810,3,-0.615,1.8540001,8.224951,1781122935386
2013463820,3,-0.79695004,1.8750001,8.54895,1781122935396
2013463830,3,-0.94995004,1.8730501,8.72295,1781122935407
2013463840,3,-1.07895,1.9230001,8.77095,1781122935417
2013463850,3,-1.1920501,2.05695,8.7310505,1781122935427
2013463861,3,-1.27995,2.2339501,8.613001,1781122935436
2013463871,3,-1.30005,2.39205,8.39805,1781122935446
2013463881,3,-1.28295,2.5789502,8.18505,1781122935457
2013463891,3,-1.29495,2.778,8.029051,1781122935467
2013463901,3,-1.335,2.9890501,7.8880506,1781122935477
2013463911,3,-1.36905,3.1729503,7.8109503,1781122935487
2013463921,3,-1.4650501,3.35505,7.7820005,1781122935498
2013463931,3,-1.5799501,3.5749502,7.7869506,1781122935507
2013463941,3,-1.7190001,3.8410501,7.82805,1781122935518
2013463951,3,-1.86195,4.1140504,7.8810005,1781122935528
2013463961,3,-1.9960501,4.39605,7.9429502,1781122935537
2013463971,3,-2.0659502,4.66695,7.9570503,1781122935548
2013463981,3,-2.12295,4.9489503,7.8900003,1781122935558
2013463991,3,-2.12805,5.2249503,7.7779503,1781122935568
2013464002,3,-2.0970001,5.50995,7.6699505,1781122935580
2013464012,3,-2.1090002,5.80695,7.63605,1781122935589
2013464022,3,-2.1400502,6.0150003,7.7029505,1781122935599
2013464032,3,-2.2840502,6.3840003,8.05095,1781122935608
2013464042,3,-2.5420501,6.7189503,8.35005,1781122935618
2013464052,3,-2.6590502,6.5659504,8.44995,1781122935628
2013464062,3,-2.6950502,6.29505,8.46195,1781122935638
2013464072,3,-2.6860502,6.0360003,8.44095,1781122935648
2013464082,3,-2.5729501,5.76105,8.376,1781122935658
2013464092,3,-2.4060001,5.493,8.36205,1781122935668
2013464102,3,-2.26395,5.24595,8.30895,1781122935679
2013464112,3,-2.1400502,5.052,8.26395,1781122935689
2013464122,3,-2.0659502,4.90605,8.271001,1781122935699
2013464132,3,-2.0029502,4.7790003,8.280001,1781122935709
2013464143,3,-1.9390501,4.6860003,8.323951,1781122935719
2013464153,3,-1.932,4.602,8.40495,1781122935729
2013464163,3,-1.8790501,4.5690002,8.496,1781122935739
2013464173,3,-1.845,4.5690002,8.64,1781122935751
2013464183,3,-1.8409501,4.605,8.812051,1781122935760
2013464193,3,-1.83105,4.6530004,9.019951,1781122935769
2013464203,3,-1.8360001,4.722,9.291,1781122935781
2013464213,3,-1.8690001,4.8559504,9.559051,1781122935789
2013464223,3,-1.8840001,4.99305,9.80595,1781122935799
2013464233,3,-1.82895,5.1720004,10.086,1781122935809
2013464243,3,-1.8409501,5.42595,10.43805,1781122935819
2013464253,3,-1.98195,5.5620003,10.797001,1781122935829
2013464263,3,-2.23305,5.58405,11.224951,1781122935839
2013464274,3,-2.5450501,5.5339503,11.647051,1781122935849
2013464284,3,-2.8170002,5.45205,12.123,1781122935861
2013464294,3,-3.07095,5.32095,12.42195,1781122935871
2013464304,3,-3.2389503,5.1270003,12.472951,1781122935881
2013464314,3,-3.2410502,4.92105,12.23295,1781122935890
2013464324,3,-3.1240501,4.734,11.874001,1781122935901
2013464334,3,-2.9280002,4.54995,11.380951,1781122935910
2013464344,3,-2.7220502,4.293,10.938001,1781122935920
2013464354,3,-2.5560002,3.9559503,10.545,1781122935930
2013464364,3,-2.4180002,3.6109502,10.30395,1781122935939
2013464374,3,-2.3070002,3.2689502,10.087951,1781122935950
2013464384,3,-2.19,2.8860002,9.81,1781122935962
2013464394,3,-2.05605,2.5890002,9.559051,1781122935971
2013464404,3,-1.9650002,2.3160002,9.231001,1781122935981
2013464415,3,-1.8739501,2.08095,8.841001,1781122935991
2013464425,3,-1.7860501,1.9230001,8.46195,1781122936001
2013464435,3,-1.7659501,1.8010501,8.10105,1781122936012
2013464445,3,-1.7380501,1.72395,7.8690004,1781122936021
2013464455,3,-1.7880001,1.69305,7.6270504,1781122936031
2013464465,3,-1.8570001,1.6810501,7.45905,1781122936041
2013464475,3,-1.9120501,1.72695,7.2889504,1781122936050
2013464485,3,-1.9650002,1.7839501,7.1929502,1781122936060
2013464495,3,-2.0320501,1.914,7.1290503,1781122936072
2013464505,3,-2.1019502,2.05005,6.9949503,1781122936081
2013464515,3,-2.1730502,2.196,6.9280505,1781122936092
2013464525,3,-2.20005,2.3490002,6.8920503,1781122936102
2013464535,3,-2.1730502,2.53395,6.8940005,1781122936112
2013464545,3,-2.121,2.7919502,6.846,1781122936122
2013464556,3,-2.0700002,3.1609502,6.846,1781122936132
2013464566,3,-1.9990501,3.73305,6.8580003,1781122936143
2013464576,3,-1.9990501,4.6140003,7.24905,1781122936152
2013464586,3,-2.058,6.28305,7.998,1781122936162
2013464596,3,-2.3119502,6.4099503,8.0460005,1781122936172
2013464606,3,-2.38695,6.2299504,7.8540006,1781122936182
2013464616,3,-2.2840502,6.56295,7.8090005,1781122936192
2013464626,3,-2.1330001,6.735,7.7130003,1781122936202
2013464636,3,-1.98705,6.8380504,7.5810003,1781122936213
2013464646,3,-1.8499501,6.8700004,7.4760003,1781122936223
2013464656,3,-1.695,6.73995,7.4880004,1781122936232
2013464666,3,-1.55295,6.51,7.6770005,1781122936246
2013464676,3,-1.4430001,6.2400002,7.9879503,1781122936255
2013464687,3,-1.338,5.8950005,8.27805,1781122936263
2013464697,3,-1.2540001,5.493,8.503051,1781122936272
2013464707,3,-1.1850001,5.14305,8.677951,1781122936283
2013464717,3,-1.1010001,4.8250504,8.74995,1781122936292
2013464727,3,-0.98100007,4.497,8.673,1781122936303
2013464737,3,-0.85200006,4.2460504,8.616,1781122936313
2013464747,3,-0.69405,4.071,8.56305,1781122936324
2013464757,3,-0.57195,3.9529502,8.604,1781122936334
2013464767,3,-0.47100002,3.86505,8.665951,1781122936345
2013464777,3,-0.41595003,3.8100002,8.7949505,1781122936354
2013464787,3,-0.423,3.82905,8.950951,1781122936364
2013464797,3,-0.45405003,3.8860502,9.121051,1781122936374
2013464807,3,-0.50205004,3.9439502,9.286051,1781122936383
2013464817,3,-0.53295004,4.03695,9.40305,1781122936393
2013464828,3,-0.52905005,4.104,9.363001,1781122936403
2013464838,3,-0.483,4.143,9.217051,1781122936414
2013464848,3,-0.40395,4.1470504,9.03495,1781122936424
2013464858,3,-0.31095,4.188,8.857051,1781122936434
2013464868,3,-0.25305,4.24095,8.89605,1781122936444
2013464878,3,-0.26505002,4.341,9.04395,1781122936455
2013464888,3,-0.29595003,4.4830503,9.231001,1781122936464
2013464898,3,-0.38505003,4.6260004,9.50895,1781122936474
2013464908,3,-0.46395,4.80795,9.777,1781122936485
2013464918,3,-0.58605003,4.9759502,10.086,1781122936494
2013464928,3,-0.76305,5.1049504,10.32705,1781122936505
2013464938,3,-0.8880001,5.18205,10.61505,1781122936514
2013464948,3,-1.00695,5.16195,10.897051,1781122936525
2013464959,3,-1.13205,4.9759502,11.232,1781122936535
2013464969,3,-1.2559501,4.7200503,11.6320505,1781122936544
2013464979,3,-1.434,4.38705,12.030001,1781122936554
2013464989,3,-1.6200001,4.06395,12.36495,1781122936565
2013464999,3,-1.8100501,3.6010501,12.604051,1781122936576
2013465009,3,-1.9560001,3.2400002,12.772051,1781122936586
2013465019,3,-2.0389502,2.94105,12.868051,1781122936595
2013465029,3,-2.1349502,2.67705,12.86505,1781122936605
2013465039,3,-2.2090502,2.325,12.633,1781122936615
2013465049,3,-2.18805,2.0380502,12.178051,1781122936626
2013465059,3,-2.09205,1.8559501,11.500951,1781122936636
2013465069,3,-1.8739501,1.7700001,10.66005,1781122936645
2013465079,3,-1.5990001,1.8559501,9.715051,1781122936655
2013465089,3,-1.2420001,1.99995,8.889001,1781122936666
2013465100,3,-0.9480001,2.1769502,8.158051,1781122936676
2013465110,3,-0.71295005,2.3370001,7.5360003,1781122936685
2013465120,3,-0.54795,2.4760501,7.1290503,1781122936696
2013465130,3,-0.47100002,2.5410001,6.8890505,1781122936706
2013465140,3,-0.44700003,2.5429502,6.86805,1781122936716
2013465150,3,-0.50895,2.529,6.9640503,1781122936726
2013465160,3,-0.63900006,2.4859502,7.2319503,1781122936736
2013465170,3,-0.82800007,2.40405,7.63395,1781122936746
2013465180,3,-1.04805,2.301,8.14605,1781122936756
2013465190,3,-1.3470001,2.1390002,8.69205,1781122936767
2013465200,3,-1.6510501,1.9380001,9.127951,1781122936778
2013465210,3,-1.881,1.77495,9.399,1781122936787
2013465220,3,-2.02005,1.7170501,9.53505,1781122936797
2013465230,3,-2.1060002,1.7320501,9.457951,1781122936807
2013465241,3,-2.1040502,1.8250501,9.23295,1781122936817
2013465251,3,-2.02305,1.9590001,8.932051,1781122936827
2013465261,3,-1.9200001,2.1649501,8.52495,1781122936837
2013465271,3,-1.77795,2.4070501,8.17695,1781122936847
2013465281,3,-1.6609501,2.67,7.9519506,1781122936859
2013465291,3,-1.59195,3.0010502,7.8900003,1781122936870
2013465301,3,-1.6180501,3.2929502,7.905,1781122936878
2013465311,3,-1.7190001,3.5299501,7.9210505,1781122936889
2013465321,3,-1.8529501,3.72795,7.9210505,1781122936897
2013465331,3,-1.9960501,3.93705,7.794,1781122936907
2013465341,3,-2.049,4.2070503,7.6459503,1781122936918
2013465351,3,-2.05095,4.5210004,7.4740505,1781122936928
2013465361,3,-2.049,4.89405,7.215,1781122936938
2013465372,3,-2.0659502,5.3250003,7.08795,1781122936947
2013465382,3,-2.14905,5.81895,7.2390003,1781122936958
2013465392,3,-2.25495,6.1660504,7.2889504,1781122936969
2013465402,3,-2.49405,6.9820504,8.070001,1781122936978
2013465412,3,-2.6809502,7.2379503,8.182051,1781122936988
2013465422,3,-2.6950502,6.9750004,8.167951,1781122936998
2013465432,3,-2.49405,6.642,8.01,1781122937008
2013465442,3,-2.25495,6.2850003,7.9860005,1781122937018
2013465452,3,-1.9789501,5.89305,7.8880506,1781122937028
2013465462,3,-1.74495,5.46705,7.8160505,1781122937038
2013465472,3,-1.5460501,5.1150002,7.7820005,1781122937048
2013465482,3,-1.3759501,4.8250504,7.8469505,1781122937059
2013465492,3,-1.2730501,4.59705,7.9810505,1781122937069
2013465502,3,-1.24905,4.3890004,8.13,1781122937079
2013465513,3,-1.2540001,4.21005,8.35005,1781122937089
2013465523,3,-1.28505,4.0800004,8.56095,1781122937098
2013465533,3,-1.2970501,3.9870002,8.785951,1781122937109
2013465543,3,-1.3230001,3.9750001,9.018001,1781122937125
2013465553,3,-1.335,4.03695,9.292951,1781122937130
2013465563,3,-1.3450501,4.15905,9.56595,1781122937139
2013465573,3,-1.3279501,4.3320003,9.83895,1781122937148
2013465583,3,-1.3470001,4.5739503,10.090051,1781122937158
2013465593,3,-1.3930501,4.8250504,10.36095,1781122937170
2013465603,3,-1.386,5.1769505,10.62705,1781122937179
2013465613,3,-1.3950001,5.598,10.960051,1781122937191
2013465623,3,-1.5010501,5.82105,11.070001,1781122937199
2013465633,3,-1.67805,5.83995,11.053051,1781122937210
2013465643,3,-1.8240001,5.80695,11.12205,1781122937220
2013465654,3,-1.9459502,5.814,11.2879505,1781122937230
2013465664,3,-2.049,5.8950005,11.568001,1781122937241
2013465674,3,-2.21895,5.9050503,11.87205,1781122937250
2013465684,3,-2.39805,5.7559505,12.121051,1781122937260
2013465694,3,-2.59995,5.4619503,12.240001,1781122937271
2013465704,3,-2.77395,4.9399505,12.15705,1781122937280
2013465714,3,-2.88,4.293,11.950951,1781122937290
2013465724,3,-2.9490001,3.7069502,11.698951,1781122937299
2013465734,3,-2.97795,3.1590002,11.467051,1781122937311
2013465744,3,-2.98005,2.6940002,11.27295,1781122937321
2013465754,3,-2.9230502,2.328,10.870951,1781122937332
2013465764,3,-2.7840002,2.0329502,10.34895,1781122937341
2013465774,3,-2.5560002,1.8610501,9.715051,1781122937350
2013465785,3,-2.32395,1.7340001,9.054001,1781122937360
2013465795,3,-2.15205,1.64295,8.328,1781122937372
2013465805,3,-1.9939501,1.57395,7.73505,1781122937380
2013465815,3,-1.8790501,1.53495,7.2370505,1781122937391
2013465825,3,-1.7740501,1.542,6.88005,1781122937401
2013465835,3,-1.7329501,1.6170001,6.5350504,1781122937411
2013465845,3,-1.7400001,1.7580001,6.3790503,1781122937421
2013465855,3,-1.7569501,1.9110001,6.3150005,1781122937431
2013465865,3,-1.79805,2.052,6.2640004,1781122937441
2013465875,3,-1.82895,2.232,6.288,1781122937451
2013465885,3,-1.86195,2.562,6.3480005,1781122937462
2013465895,3,-1.86195,2.9959502,6.4459505,1781122937472
2013465905,3,-1.8930001,3.5340002,6.55695,1781122937482
2013465915,3,-1.9459502,4.12605,6.74595,1781122937492
2013465926,3,-1.9939501,4.854,6.8509502,1781122937502
2013465936,3,-2.08005,6.2850003,7.4740505,1781122937512
2013465946,3,-2.29095,7.5420003,7.8780003,1781122937522
2013465956,3,-2.49405,7.6639504,7.5000005,1781122937532
2013465966,3,-2.5180502,7.6000504,7.18095,1781122937542
2013465976,3,-2.4180002,7.53,6.9490504,1781122937552
2013465986,3,-2.25,7.4680505,6.8029504,1781122937562
2013465996,3,-2.01495,7.3410006,6.58995,1781122937572
2013466006,3,-1.74195,7.2049503,6.56895,1781122937582
2013466016,3,-1.5270001,6.8890505,6.6570005,1781122937593
2013466026,3,-1.371,6.5149503,6.8920503,1781122937603
2013466036,3,-1.27995,6.1129503,7.2250504,1781122937613
2013466046,3,-1.23,5.7559505,7.52895,1781122937624
2013466057,3,-1.16505,5.3899503,7.76805,1781122937633
2013466067,3,-1.09395,4.9830003,7.85895,1781122937642
2013466077,3,-0.99105006,4.63605,7.9120502,1781122937653
2013466087,3,-0.89295006,4.38,7.90005,1781122937663
2013466097,3,-0.76095,4.1350503,7.8780003,1781122937674
2013466107,3,-0.63900006,3.93705,7.8139505,1781122937685
2013466117,3,-0.49695003,3.7570503,7.8019505,1781122937694
2013466127,3,-0.354,3.6880503,7.8349504,1781122937703
2013466137,3,-0.28905,3.6490502,7.9620004,1781122937713
2013466147,3,-0.22695,3.6400502,8.179951,1781122937724
2013466157,3,-0.20295002,3.7159503,8.464951,1781122937734
2013466167,3,-0.22500001,3.8839502,8.950951,1781122937746
2013466177,3,-0.28005,4.1860504,9.607051,1781122937754
2013466187,3,-0.37800002,4.401,9.8869505,1781122937765
2013466198,3,-0.40905002,4.4419503,9.934951,1781122937775
2013466208,3,-0.34395,4.4230504,9.894,1781122937784
2013466218,3,-0.27195,4.425,9.790951,1781122937794
2013466228,3,-0.19800001,4.5090003,9.790951,1781122937804
2013466238,3,-0.165,4.59495,9.84405,1781122937815
2013466248,3,-0.15795001,4.7239504,9.990001,1781122937825
2013466258,3,-0.17205001,4.89405,10.26,1781122937838
2013466268,3,-0.24405001,5.1000004,10.561951,1781122937845
2013466278,3,-0.39000002,5.29395,10.876051,1781122937854
2013466288,3,-0.54300004,5.4469504,11.16495,1781122937864
2013466298,3,-0.63900006,5.51205,11.364,1781122937875
2013466308,3,-0.69105005,5.577,11.44995,1781122937890
2013466318,3,-0.69600004,5.5480504,11.472,1781122937896
2013466328,3,-0.68205005,5.4430504,11.469001,1781122937906
2013466339,3,-0.66300005,5.2819505,11.48595,1781122937916
2013466349,3,-0.66300005,5.0880003,11.557951,1781122937925
2013466359,3,-0.711,4.8900003,11.653951,1781122937935
2013466369,3,-0.837,4.6810503,11.704051,1781122937945
2013466379,3,-0.9670501,4.4419503,11.637,1781122937955
2013466389,3,-0.99495006,4.23105,11.557951,1781122937966
2013466399,3,-0.99105006,4.0609503,11.40495,1781122937976
2013466409,3,-0.95205003,3.8820002,11.350051,1781122937985
2013466419,3,-0.97605,3.6180003,11.29905,1781122937995
2013466429,3,-1.074,3.25395,11.155951,1781122938005
2013466439,3,-1.1010001,2.86905,10.93605,1781122938015
2013466449,3,-1.098,2.5789502,10.417951,1781122938026
2013466459,3,-1.00995,2.352,9.745951,1781122938036
