icm4n607_acc,iven_sense,2026-06-11_17-50-21.438_Active 10 Pro
imuTimestamp,accuracy(more=better),acc_x[m/s^2],acc_y[m/s^2],acc_z[m/s^2],utcTimestamp(millis)
2079953051,3,-0.68205005,3.6469502,9.240001,1781189424628
2079953061,3,-0.64095,3.6469502,9.252001,1781189424639
2079953071,3,-0.65505004,3.6210003,9.24495,1781189424649
2079953081,3,-0.66705,3.5989501,9.243,1781189424659
2079953092,3,-0.651,3.6109502,9.26895,1781189424669
2079953102,3,-0.624,3.6370502,9.255,1781189424680
2079953112,3,-0.6,3.6349502,9.21405,1781189424689
2079953122,3,-0.58605003,3.62505,9.17595,1781189424698
2079953132,3,-0.57900006,3.6450002,9.142051,1781189424708
2079953142,3,-0.57900006,3.6330001,9.142051,1781189424718
2079953152,3,-0.57600003,3.6420002,9.160951,1781189424728
2079953162,3,-0.57405,3.6420002,9.19995,1781189424738
2079953172,3,-0.588,3.6180003,9.252001,1781189424748
2079953182,3,-0.59805006,3.6010501,9.26895,1781189424758
2079953192,3,-0.61200005,3.5730002,9.286051,1781189424768
2079953202,3,-0.624,3.55605,9.288,1781189424779
2079953212,3,-0.651,3.561,9.286051,1781189424789
2079953223,3,-0.66300005,3.5749502,9.25695,1781189424800
2079953233,3,-0.65295005,3.6109502,9.24495,1781189424810
2079953243,3,-0.63600004,3.6160502,9.20205,1781189424819
2079953253,3,-0.63405,3.6010501,9.1710005,1781189424830
2079953263,3,-0.62700003,3.6060002,9.15705,1781189424840
2079953273,3,-0.62205005,3.5989501,9.18105,1781189424851
2079953283,3,-0.61695004,3.6090002,9.21195,1781189424860
2079953293,3,-0.61200005,3.62505,9.20505,1781189424872
2079953303,3,-0.61995006,3.6450002,9.20895,1781189424880
2079953313,3,-0.62205005,3.6540003,9.17805,1781189424890
2079953323,3,-0.63405,3.66105,9.159,1781189424901
2079953333,3,-0.63900006,3.66405,9.159,1781189424910
2079953343,3,-0.64095,3.66405,9.19305,1781189424920
2079953354,3,-0.64395005,3.657,9.229051,1781189424931
2079953364,3,-0.63195,3.63,9.255,1781189424941
2079953374,3,-0.63600004,3.62295,9.247951,1781189424952
2079953384,3,-0.62700003,3.62505,9.252001,1781189424961
2079953394,3,-0.64395005,3.6400502,9.20895,1781189424971
2079953404,3,-0.64605004,3.6349502,9.1710005,1781189424982
2079953414,3,-0.64095,3.6709502,9.16395,1781189424991
2079953424,3,-0.63600004,3.6829503,9.166051,1781189425002
2079953434,3,-0.624,3.69,9.159,1781189425011
2079953444,3,-0.624,3.6660001,9.18105,1781189425021
2079953454,3,-0.62700003,3.6210003,9.16905,1781189425032
2079953464,3,-0.61695004,3.6060002,9.172951,1781189425042
2079953474,3,-0.65295005,3.59205,9.150001,1781189425052
2079953484,3,-0.66,3.58695,9.159,1781189425062
2079953495,3,-0.66,3.5850003,9.17805,1781189425072
2079953505,3,-0.67200005,3.59205,9.19005,1781189425082
2079953515,3,-0.66495,3.5820003,9.217051,1781189425092
2079953525,3,-0.65295005,3.5700002,9.19995,1781189425103
2079953535,3,-0.65295005,3.5779502,9.16905,1781189425112
2079953545,3,-0.651,3.58695,9.17805,1781189425122
2079953555,3,-0.63195,3.6090002,9.20205,1781189425133
2079953565,3,-0.60300004,3.6090002,9.207001,1781189425143
2079953575,3,-0.58395004,3.5989501,9.20505,1781189425153
2079953585,3,-0.555,3.59205,9.20505,1781189425163
2079953595,3,-0.54105,3.5779502,9.19005,1781189425173
2079953605,3,-0.53805,3.5730002,9.16395,1781189425183
2079953615,3,-0.531,3.5850003,9.121051,1781189425193
2079953626,3,-0.54795,3.58995,9.09195,1781189425203
2079953636,3,-0.57195,3.5850003,9.06105,1781189425213
2079953646,3,-0.60495,3.5970001,9.0730505,1781189425223
2079953656,3,-0.63195,3.6130502,9.08205,1781189425233
2079953666,3,-0.651,3.62505,9.087001,1781189425243
2079953676,3,-0.63405,3.62295,9.09,1781189425253
2079953686,3,-0.63900006,3.6060002,9.115951,1781189425263
2079953696,3,-0.651,3.6060002,9.114,1781189425274
2079953706,3,-0.66300005,3.6060002,9.262051,1781189425284
2079953716,3,-0.68895006,3.59205,9.430051,1781189425294
2079953726,3,-0.76305,3.5850003,9.552,1781189425304
2079953736,3,-0.85200006,3.5629501,9.493951,1781189425314
2079953746,3,-0.69900006,3.3640501,9.66195,1781189425324
2079953757,3,-0.43800002,3.22305,9.85305,1781189425335
2079953767,3,-0.37995002,3.5100002,9.42195,1781189425343
2079953777,3,-0.30105,3.6490502,9.166051,1781189425354
2079953787,3,-0.165,3.69,9.04395,1781189425364
2079953797,3,-0.069000006,3.6540003,8.623051,1781189425374
2079953807,3,0.0,3.6880503,7.9500003,1781189425384
2079953817,3,0.19095,3.5730002,8.92695,1781189425394
2079953827,3,0.24900001,3.31695,9.351001,1781189425404
2079953837,3,0.44205,3.27795,8.161051,1781189425415
2079953847,3,0.64605004,3.21105,8.21805,1781189425425
2079953857,3,0.65595,2.874,8.70405,1781189425435
2079953867,3,0.74700004,2.66295,8.86695,1781189425445
2079953877,3,0.93600005,2.3059502,8.85,1781189425455
2079953887,3,1.2540001,1.9570501,9.142051,1781189425464
2079953898,3,1.08405,1.8700501,9.219001,1781189425475
2079953908,3,1.12695,1.9399501,9.54705,1781189425486
2079953918,3,1.218,1.9519501,9.715051,1781189425495
2079953928,3,1.8379501,2.2699502,9.943951,1781189425505
2079953938,3,1.9560001,2.08395,9.505951,1781189425516
2079953948,3,1.8859501,1.66005,9.154051,1781189425526
2079953958,3,2.29605,1.4629501,9.111,1781189425535
2079953968,3,2.4780002,1.31295,8.88405,1781189425547
2079953978,3,2.5090501,1.056,8.72805,1781189425558
2079953988,3,3.11205,0.95595,8.829,1781189425566
2079953998,3,4.3110003,1.18605,9.240001,1781189425576
2079954008,3,4.326,0.94395006,9.35805,1781189425586
2079954018,3,4.2439504,0.88905007,9.267,1781189425596
2079954029,3,4.1460004,0.915,9.150001,1781189425606
2079954039,3,4.01205,0.9799501,8.77095,1781189425617
2079954049,3,4.0620003,0.79995006,8.42595,1781189425626
2079954059,3,4.053,0.71895003,8.14395,1781189425636
2079954069,3,4.11795,0.73305005,7.8420005,1781189425646
2079954079,3,4.29495,0.71895003,7.4470506,1781189425656
2079954089,3,4.5750003,0.59400004,7.0590005,1781189425666
2079954099,3,4.881,0.46305,6.66405,1781189425676
2079954109,3,5.13,0.34995002,6.4729505,1781189425688
2079954119,3,5.2860003,0.26205,6.5329504,1781189425696
2079954129,3,5.4700503,0.051000003,6.6600003,1781189425705
2079954139,3,5.5230002,-0.19995001,6.7819505,1781189425716
2079954149,3,5.5300503,-0.279,6.5350504,1781189425727
2079954160,3,5.47695,-0.16395001,6.28095,1781189425736
2079954170,3,5.59005,0.04095,5.6470504,1781189425746
2079954180,3,5.6790004,0.29700002,5.3880005,1781189425756
2079954190,3,5.63805,0.40995002,5.24205,1781189425766
2079954200,3,6.0019503,0.34305,4.39905,1781189425776
2079954210,3,5.9869504,0.49905002,3.9540002,1781189425786
2079954220,3,6.03105,0.73095006,3.4510503,1781189425796
2079954230,3,6.09,0.81195,2.7810001,1781189425806
2079954240,3,6.15495,0.89400005,2.0670002,1781189425816
2079954250,3,6.1810503,1.044,1.43505,1781189425827
2079954260,3,6.2029505,1.29795,0.88995004,1781189425836
2079954270,3,6.16695,1.6530001,0.39600003,1781189425846
2079954280,3,6.1450505,2.08095,0.23595001,1781189425857
2079954290,3,6.4020004,1.9969501,-0.50505,1781189425867
2079954301,3,6.6670504,1.863,-0.89100003,1781189425877
2079954311,3,6.9160504,2.01195,-1.36995,1781189425887
2079954321,3,7.1680503,2.2339501,-1.743,1781189425897
2079954331,3,7.5319505,2.151,-2.18805,1781189425907
2079954341,3,7.76205,2.115,-2.457,1781189425917
2079954351,3,7.9339504,2.1979501,-2.62695,1781189425927
2079954361,3,8.146951,2.187,-2.83995,1781189425937
2079954371,3,8.33895,2.1649501,-2.94705,1781189425947
2079954381,3,8.596951,2.028,-3.081,1781189425958
2079954391,3,8.973001,1.7149501,-3.18195,1781189425968
2079954401,3,9.295951,1.5330001,-3.0700502,1781189425979
2079954411,3,9.574051,1.49205,-2.868,1781189425988
2079954421,3,9.912001,1.3410001,-2.8279502,1781189425999
2079954432,3,10.174951,1.248,-2.7940502,1781189426009
2079954442,3,10.395,1.0680001,-2.73405,1781189426018
2079954452,3,10.788,0.60195005,-2.67705,1781189426029
2079954462,3,11.182951,0.30900002,-2.4180002,1781189426039
2079954472,3,11.48505,0.132,-2.124,1781189426049
2079954482,3,11.745001,-0.147,-1.8940501,1781189426059
2079954492,3,11.84805,-0.30705002,-1.5109501,1781189426068
2079954502,3,11.911051,-0.46995002,-1.09695,1781189426079
2079954512,3,11.968051,-0.63000005,-0.84795004,1781189426089
2079954522,3,12.010951,-0.69495004,-0.65400004,1781189426099
2079954532,3,12.1380005,-0.66195005,-0.53400004,1781189426110
2079954542,3,12.459001,-0.91305006,-0.62505,1781189426119
2079954552,3,12.68595,-1.212,-0.606,1781189426130
2079954563,3,12.792001,-1.284,-0.29205,1781189426140
2079954573,3,12.751051,-1.23405,-0.26595002,1781189426150
2079954583,3,12.50895,-0.966,-1.0339501,1781189426160
2079954593,3,12.19095,-0.66405004,-0.88095003,1781189426169
2079954603,3,11.836051,-0.32895002,-0.924,1781189426181
2079954613,3,11.494051,-0.076950006,-0.87600005,1781189426190
2079954623,3,11.40495,-0.01305,-1.0849501,1781189426200
2079954633,3,11.382001,0.063,-1.3549501,1781189426210
2079954643,3,11.17605,0.112950005,-1.5660001,1781189426220
2079954653,3,10.990951,-0.21405001,0.022950001,1781189426231
2079954663,3,10.963051,-0.30195,-0.50100005,1781189426240
2079954673,3,11.283001,-0.324,-2.11395,1781189426251
2079954683,3,10.75695,0.31695002,-1.4580001,1781189426261
2079954693,3,10.552951,0.432,-1.473,1781189426270
2079954704,3,10.251,0.26205,-1.6710001,1781189426281
2079954714,3,10.06005,0.23505001,-1.9780501,1781189426291
2079954724,3,9.868051,0.46500003,-2.12595,1781189426301
2079954734,3,9.832951,0.582,-1.94895,1781189426311
2079954744,3,9.816001,0.606,-1.8270001,1781189426321
2079954754,3,9.579,0.62100005,-2.0710502,1781189426332
2079954764,3,9.47805,0.62295,-2.04495,1781189426341
2079954774,3,9.397051,0.64695,-1.8049501,1781189426351
2079954784,3,9.32505,0.69000006,-1.4770501,1781189426362
2079954794,3,9.24405,0.70905006,-1.212,1781189426371
2079954804,3,9.04695,0.726,-1.1899501,1781189426382
2079954814,3,8.856,0.73605,-1.28805,1781189426391
2079954824,3,8.614051,0.82395005,-1.29495,1781189426402
2079954835,3,8.458051,0.81195,-1.26195,1781189426412
2079954845,3,8.511001,0.64695,-1.6350001,1781189426423
2079954855,3,8.52795,0.64500004,-1.9590001,1781189426432
2079954865,3,8.71395,0.61800003,-1.8559501,1781189426442
2079954875,3,8.73795,0.86505,-0.90795004,1781189426452
2079954885,3,8.889001,0.78105,-0.78105,1781189426462
2079954895,3,9.24405,0.42405003,-0.90300006,1781189426473
2079954905,3,9.271951,0.36900002,-1.0390501,1781189426484
2079954915,3,9.088051,0.50595003,-1.3789501,1781189426492
2079954925,3,9.363001,0.68505,-0.70905006,1781189426504
2079954935,3,9.8880005,0.76005006,-1.2240001,1781189426513
2079954945,3,10.098001,1.143,-1.6639501,1781189426525
2079954955,3,10.192051,1.2889501,-1.6570501,1781189426534
2079954966,3,10.168051,1.1020501,-1.00995,1781189426543
2079954976,3,9.981001,0.83400005,-0.64905006,1781189426553
2079954986,3,9.559951,0.64905006,-0.17295001,1781189426563
2079954996,3,9.35595,0.73800004,-0.40695003,1781189426573
2079955006,3,9.50205,0.44805002,-0.83295006,1781189426583
2079955016,3,9.15705,0.46005002,-1.04205,1781189426593
2079955026,3,8.875051,0.71205,-0.60105,1781189426610
2079955036,3,8.65695,0.93405,-0.49095002,1781189426613
2079955046,3,8.544001,0.83100003,-0.29700002,1781189426623
2079955056,3,8.54205,0.96105003,-0.78795004,1781189426634
2079955066,3,8.13,1.19505,-0.65595,1781189426644
2079955076,3,8.15205,1.1710501,-0.76605004,1781189426654
2079955086,3,8.0779505,1.18305,-0.49095002,1781189426664
2079955096,3,8.022,1.107,-0.21300001,1781189426674
2079955107,3,8.10105,0.89595,-0.33105,1781189426684
2079955117,3,8.26395,0.34095,-1.2709501,1781189426694
2079955127,3,8.54205,-0.010050001,-2.09505,1781189426704
2079955137,3,8.71905,-0.16395001,-2.83695,1781189426714
2079955147,3,9.082951,-0.60705,-3.24705,1781189426724
2079955157,3,9.688951,-1.19805,-3.3420002,1781189426735
2079955167,3,9.897,-0.37695003,-4.3890004,1781189426744
2079955177,3,9.576,0.28605002,-3.3400502,1781189426754
2079955187,3,9.624001,0.83595,-3.354,1781189426765
2079955197,3,9.34605,1.18605,-2.31795,1781189426775
2079955207,3,9.11205,1.18305,-1.5520501,1781189426785
2079955217,3,9.009001,0.90300006,-0.80505,1781189426795
2079955227,3,9.121051,0.70005006,-0.061950002,1781189426805
2079955238,3,9.093,0.91995007,0.006,1781189426815
2079955248,3,8.7619505,1.65495,-0.012,1781189426826
2079955258,3,8.094001,2.50005,-0.25395,1781189426836
2079955268,3,7.5820503,2.9599502,-0.14400001,1781189426845
2079955278,3,7.08195,3.0270002,-0.096,1781189426855
2079955288,3,6.6510005,2.8639503,0.025050001,1781189426866
2079955298,3,6.4759502,2.53095,0.17595,1781189426876
2079955308,3,6.3349504,2.256,0.38205,1781189426885
2079955318,3,6.222,1.94895,0.53295004,1781189426896
2079955328,3,6.102,1.677,0.51795,1781189426906
2079955338,3,5.90595,1.47105,0.48000002,1781189426916
2079955348,3,5.9350505,1.2409501,0.37500003,1781189426926
2079955358,3,6.4110003,0.88605005,0.24300002,1781189426938
2079955369,3,7.1340003,0.52995,0.102000006,1781189426946
2079955379,3,7.89795,0.33600003,-0.079050004,1781189426956
2079955389,3,8.784,0.25905,-0.39495003,1781189426966
2079955399,3,9.660001,0.171,-0.85200006,1781189426976
2079955409,3,10.243951,0.22995001,-1.317,1781189426986
2079955419,3,10.540951,0.32595003,-1.6710001,1781189426997
2079955429,3,10.61295,0.45495003,-1.8010501,1781189427006
2079955439,3,10.67805,0.59205,-1.8319501,1781189427016
2079955449,3,10.864051,0.59895,-1.88205,1781189427026
2079955459,3,10.977,0.53505003,-1.8679501,1781189427036
2079955469,3,11.203951,0.34305,-1.746,1781189427047
2079955479,3,11.331,0.27105,-1.63995,1781189427056
2079955489,3,11.37195,0.252,-1.4989501,1781189427067
2079955499,3,11.334001,0.21795002,-1.3789501,1781189427076
2079955510,3,11.085001,0.22605,-1.2430501,1781189427087
2079955520,3,10.716001,0.25005,-1.11105,1781189427096
2079955530,3,10.309051,0.22800002,-0.96000004,1781189427106
2079955540,3,9.8880005,0.14400001,-0.79305005,1781189427116
2079955550,3,9.48795,0.048,-0.63195,1781189427126
2079955560,3,9.13605,-0.039,-0.49800003,1781189427136
2079955570,3,8.905951,-0.15900001,-0.43605003,1781189427146
2079955580,3,8.85105,-0.33795002,-0.42195,1781189427156
2079955590,3,8.88405,-0.528,-0.42195,1781189427172
2079955600,3,8.953951,-0.68100005,-0.36600003,1781189427178
2079955610,3,9.064051,-0.81495005,-0.25395,1781189427186
2079955620,3,9.12405,-0.915,-0.120000005,1781189427198
2079955630,3,9.121051,-0.95400006,-0.028950002,1781189427206
2079955641,3,9.129001,-1.0159501,0.054,1781189427217
2079955651,3,9.17595,-1.116,0.11895001,1781189427227
2079955661,3,9.32505,-1.32,0.10695001,1781189427237
2079955671,3,9.571951,-1.5469501,0.030000001,1781189427246
2079955681,3,9.92595,-1.8750001,-0.12195001,1781189427256
2079955691,3,10.28505,-2.2030501,-0.36900002,1781189427267
2079955701,3,10.519951,-2.436,-0.68205005,1781189427277
2079955711,3,10.74495,-2.5429502,-1.00605,1781189427287
2079955721,3,11.01795,-2.60805,-1.353,1781189427298
2079955731,3,11.286,-2.697,-1.6570501,1781189427309
2079955741,3,11.611051,-2.7570002,-1.8580501,1781189427319
2079955751,3,12.018001,-2.8260002,-1.98705,1781189427329
2079955761,3,12.538051,-3.0319502,-2.15505,1781189427339
2079955772,3,12.907051,-3.2260501,-2.1790502,1781189427349
2079955782,3,13.113001,-3.2350502,-2.1090002,1781189427357
2079955792,3,13.156051,-3.0319502,-1.968,1781189427369
2079955802,3,13.012051,-3.0649502,-1.863,1781189427378
2079955812,3,12.636001,-2.7640502,-1.4130001,1781189427388
2079955822,3,12.385051,-2.56695,-1.18305,1781189427398
2079955832,3,12.32505,-2.4,-0.89100003,1781189427409
2079955842,3,12.46605,-2.4739501,-0.81195,1781189427419
2079955852,3,12.696001,-2.6539502,-0.9289501,1781189427429
2079955862,3,12.945001,-2.7949502,-1.0009501,1781189427439
2079955872,3,13.1650505,-2.8260002,-0.9670501,1781189427450
2079955882,3,13.146001,-2.66295,-0.91005003,1781189427460
2079955892,3,12.68595,-2.30205,-0.67995006,1781189427469
2079955902,3,11.85105,-1.7629501,-0.216,1781189427481
2079955913,3,10.797001,-1.2,0.38700002,1781189427491
2079955923,3,9.658051,-0.72105,0.90405005,1781189427500
2079955933,3,8.68605,-0.35805002,1.1839501,1781189427511
2079955943,3,7.97205,-0.19005,1.3060501,1781189427519
2079955953,3,7.5130506,-0.112950005,1.24905,1781189427530
2079955963,3,7.254,-0.094050005,1.11705,1781189427540
2079955973,3,7.1410503,-0.15195,0.94500005,1781189427550
2079955983,3,7.1410503,-0.279,0.76695,1781189427559
2079955993,3,7.3710003,-0.45105,0.624,1781189427570
2079956003,3,7.6200004,-0.633,0.45405003,1781189427581
2079956013,3,7.8570004,-0.85095006,0.24795002,1781189427591
2079956023,3,8.01795,-1.0210501,0.03705,1781189427601
2079956033,3,8.109,-1.15995,-0.165,1781189427612
2079956044,3,8.20005,-1.30095,-0.38595003,1781189427620
2079956054,3,8.21595,-1.3920001,-0.642,1781189427632
2079956064,3,8.16405,-1.485,-0.89295006,1781189427641
2079956074,3,8.146951,-1.6099501,-1.1230501,1781189427651
2079956084,3,8.20695,-1.7340001,-1.338,1781189427661
2079956094,3,8.24295,-1.8349501,-1.4970001,1781189427670
2079956104,3,8.299951,-1.9540501,-1.6189501,1781189427683
2079956114,3,8.35995,-2.0650501,-1.674,1781189427692
2079956124,3,8.370001,-2.1319501,-1.64295,1781189427703
2079956134,3,8.26395,-2.1360002,-1.5520501,1781189427712
2079956144,3,8.157001,-2.05305,-1.3980001,1781189427720
2079956154,3,8.025001,-1.93305,-1.2570001,1781189427732
2079956164,3,7.833,-1.794,-1.116,1781189427742
2079956175,3,7.6660504,-1.6459501,-1.0339501,1781189427752
2079956185,3,7.55805,-1.50705,-1.01505,1781189427763
2079956195,3,7.5360003,-1.4130001,-1.0390501,1781189427773
2079956205,3,7.5480003,-1.36995,-1.04595,1781189427782
2079956215,3,7.66095,-1.33395,-1.04595,1781189427793
2079956225,3,7.8240004,-1.34895,-0.9990001,1781189427802
2079956235,3,7.96995,-1.34595,-0.89295006,1781189427812
2079956245,3,8.05395,-1.3300501,-0.75705004,1781189427823
2079956255,3,8.118,-1.251,-0.63195,1781189427833
2079956265,3,8.18505,-1.1380501,-0.48900002,1781189427843
2079956275,3,8.271001,-1.0489501,-0.35205,1781189427852
2079956285,3,8.446051,-0.99195004,-0.29895002,1781189427863
2079956295,3,8.72595,-0.9990001,-0.28995,1781189427873
2079956305,3,8.997001,-0.98700005,-0.33795002,1781189427882
2079956316,3,9.25605,-0.95100003,-0.41205,1781189427893
2079956326,3,9.3820505,-0.87705004,-0.43305,1781189427904
2079956336,3,9.45195,-0.73800004,-0.39795002,1781189427912
2079956346,3,9.48795,-0.61395,-0.35895002,1781189427923
2079956356,3,9.5140505,-0.52500004,-0.32295,1781189427933
2079956366,3,9.58395,-0.453,-0.30195,1781189427943
2079956376,3,9.670051,-0.42495003,-0.27795002,1781189427953
2079956386,3,9.84,-0.40995002,-0.31905,1781189427964
2079956396,3,10.089001,-0.42195,-0.44505003,1781189427974
2079956406,3,10.362,-0.49605003,-0.63705003,1781189427983
2079956416,3,10.620001,-0.58695,-0.84495,1781189427994
2079956426,3,10.837951,-0.67605,-1.04205,1781189428004
2079956436,3,11.094001,-0.77205,-1.21905,1781189428014
2079956447,3,11.3220005,-0.85095006,-1.3620001,1781189428024
2079956457,3,11.451,-0.86700004,-1.42005,1781189428034
2079956467,3,11.443951,-0.83595,-1.4080501,1781189428044
2079956477,3,11.437051,-0.777,-1.3770001,1781189428054
2079956487,3,11.499001,-0.74805003,-1.353,1781189428064
2079956497,3,11.643001,-0.78105,-1.353,1781189428074
2079956507,3,11.700001,-0.83895004,-1.3600501,1781189428084
2079956517,3,11.56095,-0.86295,-1.3240501,1781189428095
2079956527,3,11.3550005,-0.84105,-1.2240001,1781189428106
2079956537,3,11.26395,-0.82695,-1.1689501,1781189428115
2079956547,3,11.25195,-0.85305005,-1.1230501,1781189428125
2079956557,3,11.203951,-0.85095006,-1.04595,1781189428135
2079956567,3,11.11095,-0.846,-0.94305,1781189428145
2079956578,3,10.96695,-0.82905006,-0.86205006,1781189428155
2079956588,3,10.663051,-0.74100006,-0.76395005,1781189428165
2079956598,3,10.335,-0.61095005,-0.67800003,1781189428175
2079956608,3,10.101001,-0.55395,-0.69000006,1781189428186
2079956618,3,9.945001,-0.549,-0.78105,1781189428195
2079956628,3,9.897,-0.63495004,-0.89295006,1781189428206
2079956638,3,9.873,-0.81495005,-1.02705,1781189428216
2079956648,3,9.792001,-1.04205,-1.06095,1781189428226
2079956658,3,9.639001,-1.3300501,-1.0540501,1781189428237
2079956668,3,9.363001,-1.5120001,-1.2550501,1781189428246
2079956678,3,8.98005,-1.5160501,-1.338,1781189428256
2079956688,3,8.6640005,-1.38705,-1.18005,1781189428266
2079956698,3,8.52795,-1.3099501,-1.0129501,1781189428276
2079956708,3,8.50605,-1.2550501,-1.0030501,1781189428286
2079956719,3,8.571,-1.1359501,-0.9580501,1781189428296
2079956729,3,8.68305,-1.04205,-0.89805007,1781189428306
2079956739,3,8.809951,-0.93705004,-0.83100003,1781189428316
2079956749,3,9.01605,-0.80505,-0.79305005,1781189428326
2079956759,3,9.28695,-0.70005006,-0.77805007,1781189428337
2079956769,3,9.44205,-0.74100006,-0.68505,1781189428347
2079956779,3,9.45195,-0.79995006,-0.72105,1781189428356
2079956789,3,9.36795,-0.74505,-0.88095003,1781189428367
2079956799,3,9.16695,-0.60405004,-0.92205006,1781189428377
2079956809,3,8.86305,-0.44895002,-0.86205006,1781189428386
2079956819,3,8.439,-0.33405003,-0.78495,1781189428396
2079956829,3,8.001,-0.24705002,-0.70605004,1781189428406
2079956839,3,7.656,-0.192,-0.59895,1781189428416
2079956850,3,7.431,-0.20205002,-0.47895002,1781189428426
2079956860,3,7.3549504,-0.264,-0.32805002,1781189428436
2079956870,3,7.359,-0.31905,-0.165,1781189428446
2079956880,3,7.3980002,-0.39795002,0.01995,1781189428458
2079956890,3,7.4740505,-0.50595003,0.19500001,1781189428467
2079956900,3,7.48395,-0.60705,0.31695002,1781189428476
2079956910,3,7.4740505,-0.70905006,0.39195,1781189428486
2079956920,3,7.4410505,-0.726,0.42495003,1781189428499
2079956930,3,7.4689503,-0.68805003,0.42495003,1781189428508
2079956940,3,7.52895,-0.63795,0.36795002,1781189428518
2079956950,3,7.6369505,-0.58695,0.31005,1781189428527
2079956960,3,7.8289504,-0.55605,0.23295002,1781189428536
2079956970,3,8.01105,-0.573,0.135,1781189428547
2079956981,3,8.20695,-0.58500004,0.028050002,1781189428557
2079956991,3,8.413051,-0.61095005,-0.08205,1781189428568
2079957001,3,8.532001,-0.573,-0.17295001,1781189428578
2079957011,3,8.596951,-0.50100005,-0.25905,1781189428587
2079957021,3,8.70495,-0.432,-0.35205,1781189428598
2079957031,3,8.913,-0.42195,-0.48105,1781189428608
2079957041,3,9.18105,-0.45105,-0.64395005,1781189428618
2079957051,3,9.495001,-0.50595003,-0.82395005,1781189428627
2079957061,3,9.837001,-0.549,-1.02495,1781189428637
2079957071,3,10.198951,-0.55605,-1.212,1781189428647
2079957081,3,10.44495,-0.55095005,-1.30305,1781189428658
2079957091,3,10.54605,-0.49605003,-1.317,1781189428668
2079957101,3,10.62495,-0.47700003,-1.2910501,1781189428679
2079957111,3,10.73505,-0.49395,-1.2589501,1781189428696
2079957122,3,10.833,-0.54405004,-1.23105,1781189428698
2079957132,3,11.022,-0.69495004,-1.2040501,1781189428709
2079957142,3,11.23995,-0.91800004,-1.1590501,1781189428718
2079957152,3,11.461051,-1.1400001,-1.092,1781189428728
2079957162,3,11.701951,-1.3560001,-1.05795,1781189428738
2079957172,3,12.049951,-1.5469501,-1.0540501,1781189428748
2079957182,3,12.399,-1.7029501,-1.0320001,1781189428759
2079957192,3,12.603001,-1.7730001,-0.94605005,1781189428769
2079957202,3,12.588,-1.7680501,-0.77295005,1781189428779
2079957212,3,12.33705,-1.65495,-0.58395004,1781189428789
2079957222,3,11.962951,-1.4899501,-0.39795002,1781189428800
2079957232,3,11.55195,-1.3060501,-0.27105,1781189428810
2079957242,3,11.140051,-1.0999501,-0.18405001,1781189428820
2079957253,3,10.692,-0.906,-0.061950002,1781189428830
2079957263,3,10.1959505,-0.73800004,0.09195001,1781189428840
2079957273,3,9.694051,-0.597,0.22395001,1781189428850
2079957283,3,9.241051,-0.48405004,0.31995,1781189428860
2079957293,3,8.797951,-0.42705002,0.372,1781189428870
2079957303,3,8.4199505,-0.40995002,0.384,1781189428880
2079957313,3,8.13,-0.441,0.351,1781189428890
2079957323,3,7.8880506,-0.513,0.30495003,1781189428899
2079957333,3,7.7539506,-0.58305,0.23295002,1781189428910
2079957343,3,7.6249504,-0.66195005,0.19500001,1781189428919
2079957353,3,7.5840006,-0.762,0.12795001,1781189428930
2079957363,3,7.6369505,-0.90795004,0.010950001,1781189428940
2079957373,3,7.8120003,-1.0690501,-0.16995001,1781189428950
2079957384,3,8.08005,-1.2940501,-0.44805002,1781189428960
2079957394,3,8.38605,-1.50405,-0.71805006,1781189428970
2079957404,3,8.65695,-1.6840501,-0.95100003,1781189428981
2079957414,3,8.89395,-1.8060001,-1.128,1781189428991
2079957424,3,9.009001,-1.8420001,-1.21605,1781189429001
2079957434,3,9.01605,-1.8199501,-1.21905,1781189429011
2079957444,3,8.98005,-1.7509501,-1.149,1781189429021
2079957454,3,8.911051,-1.6339501,-1.09695,1781189429031
2079957464,3,8.83905,-1.5160501,-1.0390501,1781189429040
2079957474,3,8.781,-1.4130001,-1.0009501,1781189429050
2079957484,3,8.69505,-1.31505,-0.975,1781189429062
2079957494,3,8.596951,-1.2049501,-0.975,1781189429071
2079957504,3,8.464951,-1.0900501,-0.9990001,1781189429081
2079957514,3,8.293051,-0.96105003,-0.97695005,1781189429092
2079957525,3,8.097,-0.882,-0.97005004,1781189429102
2079957535,3,7.9870505,-0.82905006,-0.97005004,1781189429112
2079957545,3,7.905,-0.79995006,-0.96000004,1781189429122
2079957555,3,7.8409505,-0.80805004,-0.96000004,1781189429132
2079957565,3,7.80705,-0.82005006,-0.9289501,1781189429142
2079957575,3,7.8,-0.83595,-0.88395005,1781189429152
2079957585,3,7.8409505,-0.86505,-0.81900007,1781189429162
2079957595,3,7.8360004,-0.85995007,-0.72300005,1781189429172
2079957605,3,7.9099503,-0.82395005,-0.61305004,1781189429182
2079957615,3,7.86705,-0.76905006,-0.441,1781189429192
2079957625,3,7.7569504,-0.657,-0.252,1781189429202
2079957635,3,7.728,-0.597,-0.15795001,1781189429212
2079957645,3,7.80705,-0.58695,-0.15300001,1781189429223
2079957656,3,7.9870505,-0.63795,-0.22800002,1781189429233
2079957666,3,8.238,-0.72105,-0.37605003,1781189429243
2079957676,3,8.511001,-0.82695,-0.53205,1781189429253
2079957686,3,8.71695,-0.90105003,-0.69705003,1781189429263
2079957696,3,8.83905,-0.92505,-0.81195,1781189429273
2079957706,3,8.98995,-0.90795004,-0.91005003,1781189429283
2079957716,3,9.153001,-0.88905007,-0.98205006,1781189429293
2079957726,3,9.366,-0.86505,-1.0390501,1781189429303
2079957736,3,9.658051,-0.86505,-1.0819501,1781189429314
2079957746,3,10.026,-0.915,-1.2210001,1781189429324
2079957756,3,10.431001,-1.06095,-1.3410001,1781189429334
2079957766,3,10.884001,-1.31505,-1.4800501,1781189429344
2079957776,3,11.350051,-1.6309501,-1.6570501,1781189429354
2079957787,3,11.767051,-1.9189501,-1.84395,1781189429364
2079957797,3,12.117001,-2.0959501,-1.9609501,1781189429374
2079957807,3,12.37005,-2.151,-1.968,1781189429384
2079957817,3,12.48795,-2.115,-1.8679501,1781189429394
2079957827,3,12.40095,-1.9860001,-1.67595,1781189429404
2079957837,3,12.141001,-1.7989501,-1.4940001,1781189429414
2079957847,3,11.784,-1.5619501,-1.2360001,1781189429425
2079957857,3,11.512951,-1.32,-1.01505,1781189429434
2079957867,3,11.262,-1.1520001,-0.855,1781189429444
2079957877,3,11.073001,-1.0570501,-0.66795003,1781189429455
2079957887,3,10.812,-0.966,-0.33105,1781189429464
2079957897,3,10.39305,-0.94200003,0.043950003,1781189429476
2079957907,3,9.871051,-0.93000007,0.324,1781189429487
2079957917,3,9.37005,-0.92505,0.49005002,1781189429495
2079957928,3,9.018001,-0.97305006,0.51795,1781189429505
2079957938,3,8.844001,-1.02795,0.31995,1781189429515
2079957948,3,8.746051,-0.99705005,-0.036000002,1781189429526
2079957958,3,8.772,-0.86505,-0.40005,1781189429536
2079957968,3,9.078,-0.86295,-0.70395005,1781189429545
2079957978,3,9.535951,-1.0639501,-0.90300006,1781189429556
2079957988,3,9.78705,-1.21695,-1.176,1781189429566
2079957998,3,9.897,-1.2100501,-1.3789501,1781189429576
2079958008,3,9.901951,-1.03695,-1.45095,1781189429586
2079958018,3,9.859051,-0.80505,-1.4440501,1781189429596
2079958028,3,9.825001,-0.61395,-1.3069501,1781189429606
2079958038,3,9.80595,-0.53205,-1.113,1781189429616
2079958048,3,9.688951,-0.55395,-0.95295006,1781189429626
2079958059,3,9.535951,-0.61395,-0.82905006,1781189429636
2079958069,3,9.318001,-0.66405004,-0.74205005,1781189429647
2079958079,3,9.117001,-0.70500004,-0.71400005,1781189429658
2079958089,3,8.94705,-0.74100006,-0.67305005,1781189429667
2079958099,3,8.68095,-0.74100006,-0.615,1781189429676
2079958109,3,8.455951,-0.70695,-0.55305004,1781189429686
2079958119,3,8.34795,-0.702,-0.45705003,1781189429696
2079958129,3,8.274,-0.70500004,-0.28995,1781189429706
2079958139,3,8.25,-0.75000006,-0.15105,1781189429717
2079958149,3,8.22795,-0.78795004,0.028050002,1781189429727
2079958159,3,8.26395,-0.85305005,0.19500001,1781189429737
2079958169,3,8.34105,-0.91095006,0.31305,1781189429747
2079958179,3,8.523001,-0.9990001,0.38895002,1781189429756
2079958190,3,8.80095,-1.0639501,0.45105,1781189429767
2079958200,3,9.14805,-1.15995,0.45600003,1781189429776
2079958210,3,9.471001,-1.2270001,0.41295,1781189429787
2079958220,3,9.660001,-1.2240001,0.32895002,1781189429796
2079958230,3,9.753,-1.1839501,0.22200002,1781189429806
2079958240,3,9.897,-1.164,0.087000005,1781189429817
2079958250,3,10.168051,-1.1689501,-0.06705,1781189429832
2079958260,3,10.390051,-1.19595,-0.27795002,1781189429837
2079958270,3,10.453051,-1.1910001,-0.46005002,1781189429847
2079958280,3,10.326,-1.15695,-0.62505,1781189429857
2079958290,3,9.993,-1.07805,-0.73005,1781189429867
2079958300,3,9.526051,-0.93495005,-0.75000006,1781189429877
2079958341,3,8.596951,-0.81195,-0.735,1781189429917
2079958351,3,8.595,-0.882,-0.76905006,1781189429927
2079958361,3,8.568001,-0.95595,-0.77805007,1781189429937
2079958371,3,8.54205,-1.023,-0.81900007,1781189429947
2079958381,3,8.52,-1.07595,-0.85995007,1781189429957
2079958391,3,8.56095,-1.04505,-0.93105006,1781189429967
2079958401,3,8.655001,-0.99405,-0.99405,1781189429977
2079958411,3,8.875051,-0.96795005,-1.08,1781189429987
2079958421,3,9.18105,-0.92505,-1.1520001,1781189429997
2079958431,3,9.50895,-0.89895004,-1.21905,1781189430007
2079958441,3,9.627001,-0.90300006,-1.2240001,1781189430017
2079958451,3,9.564,-0.94200003,-1.14495,1781189430027
2079958462,3,9.44505,-0.915,-1.14705,1781189430038
2079958472,3,9.35595,-0.85605,-1.2379501,1781189430048
2079958482,3,9.17595,-0.79305005,-1.248,1781189430058
2079958492,3,8.99205,-0.70005006,-1.1730001,1781189430068
2079958502,3,8.87205,-0.669,-1.0540501,1781189430078
2079958512,3,8.81295,-0.66195005,-0.915,1781189430088
2079958522,3,8.83905,-0.70500004,-0.77595,1781189430098
2079958532,3,8.944051,-0.786,-0.59205,1781189430108
2079958542,3,9.10005,-0.882,-0.48900002,1781189430121
2079958552,3,9.34605,-0.97800004,-0.393,1781189430129
2079958562,3,9.460951,-1.04505,-0.36195,1781189430138
2079958572,3,9.535951,-1.0540501,-0.33105,1781189430148
2079958582,3,9.46905,-0.98205006,-0.29895002,1781189430159
2079958593,3,9.283951,-0.89400005,-0.20595,1781189430169
2079958603,3,9.118951,-0.82395005,-0.117000006,1781189430179
2079958613,3,9.0400505,-0.762,-0.034050003,1781189430188
2079958623,3,8.98005,-0.73800004,0.028050002,1781189430198
2079958633,3,8.962951,-0.75705004,0.043950003,1781189430209
2079958643,3,9.045,-0.76695,-0.0049500004,1781189430219
2079958653,3,9.114,-0.786,-0.055050004,1781189430229
2079958663,3,9.27705,-0.786,-0.12900001,1781189430239
2079958673,3,9.291,-0.74505,-0.19605,1781189430249
2079958683,3,9.198001,-0.70695,-0.24705002,1781189430259
2079958693,3,9.02595,-0.67395,-0.27795002,1781189430269
2079958703,3,8.93505,-0.62595004,-0.34305,1781189430279
2079958713,3,8.97795,-0.68100005,-0.43095002,1781189430289
2079958724,3,9.1380005,-0.71400005,-0.642,1781189430299
2079958734,3,9.241051,-0.77895004,-0.88605005,1781189430310
2079958744,3,9.4470005,-0.84795004,-1.1230501,1781189430320
2079958754,3,9.739051,-0.89400005,-1.2790501,1781189430330
2079958764,3,10.177051,-1.00905,-1.45305,1781189430340
2079958774,3,10.255951,-1.0489501,-1.4389501,1781189430350
2079958784,3,10.06005,-0.975,-1.3740001,1781189430360
2079958794,3,9.691051,-0.83205,-1.2070501,1781189430370
2079958804,3,9.306001,-0.693,-1.06305,1781189430380
2079958814,3,9.04695,-0.61605,-0.9670501,1781189430390
2079958824,3,8.88,-0.57105005,-0.84495,1781189430400
2079958834,3,8.808001,-0.609,-0.79695004,1781189430410
2079958844,3,8.769,-0.68595004,-0.75195,1781189430421
2079958854,3,8.817,-0.76905006,-0.70605004,1781189430431
2079958865,3,8.877001,-0.82905006,-0.63195,1781189430441
2079958875,3,8.949,-0.87705004,-0.53595,1781189430450
2079958885,3,9.02595,-0.91800004,-0.47895002,1781189430461
2079958895,3,9.126,-0.92700005,-0.38295,1781189430470
2079958905,3,9.196051,-0.91095006,-0.26295,1781189430482
2079958915,3,9.214951,-0.882,-0.16095,1781189430493
2079958925,3,9.153001,-0.83205,-0.076950006,1781189430501
2079958935,3,9.208051,-0.77895004,-0.01905,1781189430511
2079958945,3,9.3490505,-0.71205,-0.036000002,1781189430522
2079958955,3,9.460951,-0.67395,-0.108,1781189430532
2079958965,3,9.50895,-0.62595004,-0.17505,1781189430541
2079958975,3,9.556951,-0.56805,-0.28695002,1781189430552
2079958985,3,9.58605,-0.50805,-0.37395,1781189430562
2079958996,3,9.5449505,-0.49605003,-0.46695003,1781189430573
2079959006,3,9.4140005,-0.46305,-0.51495004,1781189430582
2079959016,3,9.259951,-0.42900002,-0.53595,1781189430592
2079959026,3,9.11205,-0.40800002,-0.55095005,1781189430602
2079959036,3,9.009001,-0.40500003,-0.54405004,1781189430612
2079959046,3,8.96595,-0.39600003,-0.53400004,1781189430622
2079959056,3,8.95905,-0.42195,-0.52005005,1781189430632
2079959066,3,9.009001,-0.46800002,-0.49305,1781189430642
2079959076,3,9.109051,-0.56295,-0.47205,1781189430660
2079959086,3,9.141001,-0.63795,-0.47400004,1781189430662
2079959096,3,9.16905,-0.69000006,-0.46500003,1781189430673
2079959106,3,9.12405,-0.71205,-0.44805002,1781189430682
2079959116,3,9.00195,-0.717,-0.41700003,1781189430693
2079959127,3,8.875051,-0.666,-0.381,1781189430702
2079959137,3,8.78895,-0.66405004,-0.32805002,1781189430712
2079959147,3,8.752951,-0.666,-0.27795002,1781189430723
2079959157,3,8.785951,-0.65400004,-0.26595002,1781189430733
2079959167,3,8.84805,-0.666,-0.23505001,1781189430743
2079959177,3,8.974951,-0.69495004,-0.21300001,1781189430753
2079959187,3,9.118951,-0.70905006,-0.25905,1781189430763
2079959197,3,9.217051,-0.68595004,-0.24705002,1781189430773
2079959207,3,9.283951,-0.66195005,-0.24000001,1781189430784
2079959217,3,9.306001,-0.62100005,-0.24900001,1781189430794
2079959227,3,9.271951,-0.58500004,-0.22995001,1781189430803
2079959237,3,9.283951,-0.60705,-0.28305,1781189430814
2079959247,3,9.28695,-0.59205,-0.42195,1781189430824
2079959257,3,9.246,-0.52995,-0.49305,1781189430834
2079959268,3,9.229051,-0.49905002,-0.54405004,1781189430844
2079959278,3,9.21195,-0.51600003,-0.615,1781189430854
2079959288,3,9.238951,-0.53505003,-0.67995006,1781189430864
2079959298,3,9.23595,-0.52995,-0.67800003,1781189430874
2079959308,3,9.246,-0.54705,-0.66300005,1781189430884
2079959318,3,9.229051,-0.573,-0.65400004,1781189430894
2079959328,3,9.222,-0.59205,-0.63000005,1781189430905
2079959338,3,9.19305,-0.63795,-0.57495004,1781189430914
2079959348,3,9.16695,-0.67800003,-0.55305004,1781189430924
2079959358,3,9.15495,-0.70005006,-0.53205,1781189430934
2079959368,3,9.17895,-0.702,-0.49305,1781189430944
2079959378,3,9.214951,-0.70695,-0.51195,1781189430955
2079959388,3,9.232051,-0.70005006,-0.49800003,1781189430965
2079959399,3,9.234,-0.68295,-0.48600003,1781189430974
2079959409,3,9.267,-0.65205,-0.46905002,1781189430985
2079959419,3,9.247951,-0.61395,-0.462,1781189430995
2079959429,3,9.217051,-0.57495004,-0.42900002,1781189431005
2079959439,3,9.2029505,-0.52995,-0.40005,1781189431015
2079959449,3,9.20505,-0.49605003,-0.42900002,1781189431025
2079959459,3,9.19995,-0.51600003,-0.45495003,1781189431035
2079959469,3,9.19305,-0.51795,-0.49800003,1781189431045
2079959479,3,9.18795,-0.49905002,-0.52395004,1781189431055
2079959489,3,9.17895,-0.492,-0.558,1781189431066
2079959499,3,9.15495,-0.49395,-0.59205,1781189431076
2079959509,3,9.129001,-0.49905002,-0.61095005,1781189431086
2079959519,3,9.15705,-0.48195,-0.63495004,1781189431095
2079959530,3,9.126,-0.46005002,-0.62700003,1781189431106
2079959540,3,9.121051,-0.47700003,-0.63900006,1781189431116
2079959550,3,9.109051,-0.46800002,-0.65400004,1781189431126
2079959560,3,9.073951,-0.453,-0.62295,1781189431136
2079959570,3,9.009001,-0.45795003,-0.62700003,1781189431146
2079959580,3,8.956051,-0.46995002,-0.63000005,1781189431156
2079959590,3,8.938951,-0.46305,-0.63195,1781189431166
2079959600,3,8.920051,-0.49605003,-0.63000005,1781189431176
2079959610,3,8.95905,-0.52005005,-0.63195,1781189431187
2079959620,3,9.02595,-0.55395,-0.61800003,1781189431196
2079959630,3,9.117001,-0.60705,-0.63705003,1781189431206
2079959640,3,9.153001,-0.64005005,-0.61095005,1781189431217
2079959650,3,9.19305,-0.63000005,-0.60795003,1781189431227
2079959660,3,9.232051,-0.62100005,-0.61800003,1781189431236
2079959671,3,9.23595,-0.609,-0.58695,1781189431247
2079959681,3,9.22395,-0.56805,-0.55995005,1781189431257
2079959691,3,9.19995,-0.54705,-0.53595,1781189431268
2079959701,3,9.184051,-0.53505003,-0.49095002,1781189431276
2079959711,3,9.19305,-0.513,-0.45705003,1781189431288
2079959721,3,9.20505,-0.52305,-0.43095002,1781189431297
2079959731,3,9.214951,-0.513,-0.40995002,1781189431307
2079959741,3,9.238951,-0.51105005,-0.41895002,1781189431317
2079959751,3,9.253051,-0.504,-0.41400003,1781189431327
2079959761,3,9.238951,-0.46800002,-0.441,1781189431338
2079959771,3,9.19995,-0.432,-0.45705003,1781189431348
2079959781,3,9.19095,-0.41505003,-0.45000002,1781189431357
2079959791,3,9.174001,-0.40995002,-0.46005002,1781189431368
2079959802,3,9.12405,-0.38895002,-0.50100005,1781189431378
2079959812,3,9.102,-0.384,-0.52695,1781189431387
2079959822,3,9.052051,-0.372,-0.51000005,1781189431397
2079959832,3,9.042001,-0.372,-0.52395004,1781189431408
2079959842,3,9.0379505,-0.381,-0.49305,1781189431418
2079959852,3,9.049951,-0.42900002,-0.51195,1781189431428
2079959862,3,9.078,-0.46500003,-0.51495004,1781189431438
2079959872,3,9.109051,-0.48195,-0.53400004,1781189431448
2079959882,3,9.117001,-0.52500004,-0.52395004,1781189431458
2079959892,3,9.106951,-0.53505003,-0.52695,1781189431469
2079959902,3,9.10005,-0.55395,-0.50805,1781189431479
2079959912,3,9.093,-0.54705,-0.49095002,1781189431488
2079959922,3,9.097051,-0.56295,-0.50505,1781189431500
2079959933,3,9.129001,-0.57795,-0.49305,1781189431510
2079959943,3,9.14505,-0.56805,-0.53205,1781189431519
2079959953,3,9.2029505,-0.56595004,-0.53595,1781189431529
2079959963,3,9.25605,-0.56295,-0.53400004,1781189431539
2079959973,3,9.32295,-0.57105005,-0.51705,1781189431549
2079959983,3,9.394051,-0.56100005,-0.51705,1781189431559
2079959993,3,9.448951,-0.56100005,-0.46005002,1781189431569
2079960003,3,9.5140505,-0.54405004,-0.45705003,1781189431579
2079960013,3,9.604951,-0.54195005,-0.44505003,1781189431589
2079960023,3,9.65295,-0.52500004,-0.44805002,1781189431599
2079960033,3,9.660001,-0.51105005,-0.43305,1781189431609
2079960043,3,9.6,-0.48000002,-0.40995002,1781189431619
2079960053,3,9.528001,-0.48900002,-0.34995002,1781189431630
2079960063,3,9.44505,-0.49395,-0.46905002,1781189431640
2079960074,3,9.44205,-0.40305,-0.45000002,1781189431651
2079960084,3,9.424951,-0.41505003,-0.42900002,1781189431660
2079960094,3,9.391951,-0.44895002,-0.45705003,1781189431670
2079960104,3,9.39,-0.46995002,-0.45495003,1781189431680
2079960114,3,9.394051,-0.46800002,-0.46500003,1781189431690
2079960124,3,9.3820505,-0.45600003,-0.45495003,1781189431700
2079960134,3,9.363001,-0.46800002,-0.48405004,1781189431710
2079960144,3,9.342,-0.45795003,-0.48900002,1781189431720
2079960154,3,9.330001,-0.492,-0.48405004,1781189431730
2079960164,3,9.339001,-0.52995,-0.46905002,1781189431740
2079960174,3,9.3490505,-0.55905,-0.48600003,1781189431751
2079960184,3,9.351001,-0.59505004,-0.49605003,1781189431761
2079960194,3,9.32295,-0.642,-0.49605003,1781189431771
2079960205,3,9.29895,-0.68595004,-0.46905002,1781189431781
2079960215,3,9.291,-0.70905006,-0.453,1781189431791
2079960225,3,9.28905,-0.73605,-0.44505003,1781189431801
2079960235,3,9.330001,-0.73800004,-0.46005002,1781189431811
2079960245,3,9.33495,-0.75495005,-0.44805002,1781189431821
2079960255,3,9.394051,-0.79800004,-0.45495003,1781189431832
2079960265,3,9.423,-0.81495005,-0.44805002,1781189431841
2079960275,3,9.430051,-0.81000006,-0.47205,1781189431851
2079960285,3,9.46395,-0.82005006,-0.47895002,1781189431861
2079960295,3,9.46605,-0.78405005,-0.48405004,1781189431871
2079960305,3,9.436951,-0.777,-0.50805,1781189431882
2079960315,3,9.46395,-0.753,-0.51705,1781189431891
2079960325,3,9.47595,-0.75000006,-0.53595,1781189431902
2079960336,3,9.46395,-0.73605,-0.54795,1781189431912
2079960346,3,9.430051,-0.70695,-0.546,1781189431922
2079960356,3,9.406051,-0.66195005,-0.55995005,1781189431932
2079960366,3,9.363001,-0.59895,-0.55995005,1781189431942
2079960376,3,9.294001,-0.56295,-0.53595,1781189431952
2079960386,3,9.217051,-0.53205,-0.54105,1781189431962
2079960396,3,9.13305,-0.54405004,-0.50505,1781189431972
2079960406,3,9.064051,-0.57495004,-0.46005002,1781189431983
2079960416,3,9.082951,-0.59505004,-0.45000002,1781189431992
2079960426,3,9.117001,-0.64500004,-0.46500003,1781189432002
2079960436,3,9.220051,-0.702,-0.49305,1781189432012
2079960446,3,9.327001,-0.762,-0.52005005,1781189432023
2079960456,3,9.399,-0.80295,-0.53205,1781189432032
2079960466,3,9.448951,-0.79995006,-0.51195,1781189432044
2079960477,3,9.46605,-0.76695,-0.48405004,1781189432053
2079960487,3,9.427951,-0.74505,-0.46695003,1781189432063
2079960497,3,9.406051,-0.71400005,-0.42600003,1781189432073
2079960507,3,9.373051,-0.66195005,-0.41400003,1781189432083
2079960517,3,9.339001,-0.64005005,-0.36900002,1781189432093
2079960527,3,9.339001,-0.63495004,-0.37095,1781189432103
2079960537,3,9.375,-0.65400004,-0.41700003,1781189432113
2079960547,3,9.375,-0.657,-0.453,1781189432123
2079960557,3,9.411,-0.669,-0.48600003,1781189432133
2079960567,3,9.415951,-0.64995,-0.48405004,1781189432143
2079960577,3,9.42105,-0.657,-0.50100005,1781189432153
2079960587,3,9.39,-0.64005005,-0.50505,1781189432164
2079960597,3,9.385051,-0.61095005,-0.47895002,1781189432174
2079960608,3,9.354,-0.58695,-0.49305,1781189432184
2079960618,3,9.33195,-0.56805,-0.50100005,1781189432194
2079960628,3,9.30105,-0.55395,-0.49095002,1781189432204
2079960638,3,9.294001,-0.53895,-0.49800003,1781189432216
2079960648,3,9.30105,-0.53205,-0.51000005,1781189432224
2079960658,3,9.27705,-0.528,-0.49605003,1781189432234
2079960668,3,9.262951,-0.52500004,-0.47400004,1781189432244
2079960678,3,9.222,-0.49905002,-0.44505003,1781189432254
2079960688,3,9.196051,-0.51105005,-0.41895002,1781189432265
2079960698,3,9.174001,-0.49395,-0.41205,1781189432274
2079960708,3,9.16695,-0.513,-0.37800002,1781189432285
2079960718,3,9.153001,-0.50100005,-0.37395,1781189432295
2079960728,3,9.19095,-0.504,-0.39795002,1781189432305
2079960739,3,9.217051,-0.52005005,-0.40995002,1781189432315
2079960749,3,9.262951,-0.51795,-0.43605003,1781189432326
2079960759,3,9.33195,-0.537,-0.47400004,1781189432335
2079960769,3,9.411,-0.55095005,-0.50100005,1781189432345
2079960779,3,9.46395,-0.56295,-0.49305,1781189432355
2079960789,3,9.4810505,-0.54405004,-0.49800003,1781189432365
2079960799,3,9.45195,-0.52995,-0.46695003,1781189432375
2079960809,3,9.436951,-0.52305,-0.45000002,1781189432385
2079960819,3,9.430051,-0.51105005,-0.45705003,1781189432396
2079960829,3,9.460951,-0.51600003,-0.48600003,1781189432406
2079960839,3,9.523951,-0.52305,-0.49605003,1781189432416
2079960849,3,9.59805,-0.49395,-0.51705,1781189432426
2079960859,3,9.67395,-0.50100005,-0.52905005,1781189432436
2079960869,3,9.648001,-0.51600003,-0.51495004,1781189432446
2079960880,3,9.591001,-0.52305,-0.48105,1781189432457
2079960890,3,9.543,-0.55095005,-0.47400004,1781189432466
2079960900,3,9.483001,-0.58695,-0.42195,1781189432475
2079960910,3,9.435,-0.64005005,-0.39795002,1781189432487
2079960920,3,9.3490505,-0.657,-0.36195,1781189432496
2079960930,3,9.27,-0.67800003,-0.32805002,1781189432507
2079960940,3,9.15495,-0.66405004,-0.30195,1781189432516
2079960950,3,9.126,-0.71205,-0.30195,1781189432526
2079960960,3,9.109051,-0.73305005,-0.30195,1781189432537
2079960970,3,9.09,-0.75495005,-0.34695002,1781189432546
2079960980,3,9.13605,-0.78405005,-0.39495003,1781189432557
2079960990,3,9.19095,-0.80295,-0.45495003,1781189432567
2079961000,3,9.30105,-0.83205,-0.50100005,1781189432577
2079961011,3,9.399,-0.83595,-0.56505,1781189432587
2079961021,3,9.507001,-0.846,-0.60795003,1781189432597
2079961031,3,9.574051,-0.83595,-0.63900006,1781189432607
2079961041,3,9.58605,-0.81495005,-0.63495004,1781189432617
2079961051,3,9.574051,-0.74505,-0.61995006,1781189432627
2079961061,3,9.53295,-0.71205,-0.61995006,1781189432637
2079961071,3,9.504001,-0.64695,-0.57495004,1781189432648
2079961081,3,9.45195,-0.62295,-0.61095005,1781189432657
2079961091,3,9.430051,-0.60705,-0.50295,1781189432667
2079961101,3,9.5140505,-0.60195005,-0.43800002,1781189432678
2079961111,3,9.49995,-0.69000006,-0.49800003,1781189432688
2079961121,3,9.448951,-0.702,-0.49305,1781189432698
2079961131,3,9.43305,-0.68295,-0.46695003,1781189432707
2079961142,3,9.387,-0.65895003,-0.47895002,1781189432718
2079961152,3,9.32505,-0.65895003,-0.48600003,1781189432728
2079961162,3,9.306001,-0.633,-0.50100005,1781189432739
2079961172,3,9.283951,-0.62295,-0.48900002,1781189432750
2079961182,3,9.262951,-0.63000005,-0.51495004,1781189432759
2079961192,3,9.27495,-0.60705,-0.51705,1781189432767
2079961202,3,9.267,-0.59895,-0.55605,1781189432778
2079961212,3,9.258,-0.63000005,-0.61995006,1781189432788
2079961222,3,9.250951,-0.64005005,-0.64905006,1781189432798
2079961232,3,9.250951,-0.67095006,-0.65595,1781189432808
2079961242,3,9.24405,-0.64500004,-0.67095006,1781189432819
2079961252,3,9.259951,-0.67095006,-0.67995006,1781189432829
2079961262,3,9.315001,-0.66195005,-0.702,1781189432838
2079961272,3,9.31995,-0.67395,-0.702,1781189432849
2079961283,3,9.330001,-0.666,-0.69195,1781189432859
2079961293,3,9.303,-0.67605,-0.67095006,1781189432869
2079961303,3,9.30795,-0.66195005,-0.64395005,1781189432879
2079961313,3,9.330001,-0.68805003,-0.63705003,1781189432889
2079961323,3,9.339001,-0.693,-0.61800003,1781189432899
2079961333,3,9.373051,-0.71400005,-0.60105,1781189432909
2079961343,3,9.385051,-0.72105,-0.63000005,1781189432919
2079961353,3,9.378,-0.71895003,-0.57705003,1781189432929
2079961363,3,9.375,-0.70905006,-0.56505,1781189432939
2079961373,3,9.373051,-0.72405005,-0.52905005,1781189432949
2079961383,3,9.37005,-0.70005006,-0.50295,1781189432960
2079961393,3,9.342,-0.67800003,-0.462,1781189432970
2079961403,3,9.31305,-0.66405004,-0.47400004,1781189432979
2079961414,3,9.330001,-0.63495004,-0.46905002,1781189432990
2079961424,3,9.342,-0.65400004,-0.50100005,1781189433000
2079961434,3,9.387,-0.64500004,-0.52695,1781189433010
2079961444,3,9.44205,-0.65895003,-0.54405004,1781189433020
2079961454,3,9.48795,-0.65895003,-0.57705003,1781189433030
2079961464,3,9.47805,-0.66195005,-0.57495004,1781189433040
2079961474,3,9.460951,-0.64695,-0.546,1781189433051
2079961484,3,9.418051,-0.62295,-0.51705,1781189433060
2079961494,3,9.339001,-0.63000005,-0.50100005,1781189433070
2079961504,3,9.27495,-0.62805,-0.453,1781189433080
2079961514,3,9.222,-0.62595004,-0.453,1781189433090
2079961524,3,9.21,-0.63000005,-0.441,1781189433100
2079961534,3,9.229051,-0.63795,-0.46500003,1781189433110
2079961545,3,9.27,-0.67800003,-0.49095002,1781189433121
2079961555,3,9.3490505,-0.71400005,-0.50805,1781189433131
2079961565,3,9.42105,-0.73305005,-0.52695,1781189433141
2079961575,3,9.435,-0.70695,-0.49095002,1781189433151
2079961585,3,9.435,-0.68295,-0.48600003,1781189433161
2079961595,3,9.430051,-0.64500004,-0.45495003,1781189433171
2079961605,3,9.40905,-0.61800003,-0.42405003,1781189433181
2079961615,3,9.379951,-0.58005005,-0.41400003,1781189433191
2079961625,3,9.35805,-0.56595004,-0.39795002,1781189433201
2079961635,3,9.330001,-0.55605,-0.35895002,1781189433211
2079961645,3,9.271951,-0.537,-0.354,1781189433222
2079961655,3,9.258,-0.537,-0.35700002,1781189433231
2079961665,3,9.267,-0.55095005,-0.35700002,1781189433242
2079961675,3,9.28905,-0.57795,-0.36600003,1781189433252
2079961686,3,9.354,-0.58995,-0.37605003,1781189433262
2079961696,3,9.424951,-0.62295,-0.41700003,1781189433272
2079961706,3,9.471001,-0.633,-0.44505003,1781189433281
2079961716,3,9.507001,-0.64005005,-0.44805002,1781189433292
2079961726,3,9.48795,-0.62805,-0.46005002,1781189433303
2079961736,3,9.44505,-0.58995,-0.453,1781189433312
2079961746,3,9.375,-0.54195005,-0.44505003,1781189433322
2079961756,3,9.279,-0.50805,-0.46005002,1781189433332
2079961766,3,9.16695,-0.47505003,-0.41700003,1781189433342
2079961776,3,9.1050005,-0.47505003,-0.402,1781189433352
2079961786,3,9.0709505,-0.47205,-0.38805002,1781189433363
2079961796,3,9.076051,-0.50595003,-0.39000002,1781189433372
2079961806,3,9.106951,-0.53205,-0.40695003,1781189433382
2079961817,3,9.153001,-0.573,-0.41205,1781189433392
2079961827,3,9.220051,-0.58695,-0.42600003,1781189433403
2079961837,3,9.31095,-0.633,-0.43605003,1781189433413
2079961847,3,9.394051,-0.657,-0.44805002,1781189433423
2079961857,3,9.424951,-0.64995,-0.43305,1781189433433
2079961867,3,9.46905,-0.64500004,-0.45000002,1781189433443
2079961877,3,9.415951,-0.62295,-0.41205,1781189433454
2079961887,3,9.391951,-0.59895,-0.42900002,1781189433464
2079961897,3,9.3490505,-0.57795,-0.42900002,1781189433476
2079961907,3,9.354,-0.56805,-0.43800002,1781189433483
2079961917,3,9.37005,-0.56295,-0.46500003,1781189433494
2079961927,3,9.403951,-0.57795,-0.47400004,1781189433504
2079961937,3,9.46395,-0.59505004,-0.50505,1781189433514
2079961948,3,9.460951,-0.61605,-0.51195,1781189433524
2079961958,3,9.460951,-0.60705,-0.50805,1781189433534
2079961968,3,9.4470005,-0.61095005,-0.50295,1781189433544
2079961978,3,9.45195,-0.59895,-0.50295,1781189433555
2079961988,3,9.424951,-0.60195005,-0.47400004,1781189433565
2079961998,3,9.37005,-0.57105005,-0.52395004,1781189433574
2079962008,3,9.327001,-0.60195005,-0.46695003,1781189433584
2079962018,3,9.378,-0.62100005,-0.32805002,1781189433594
2079962028,3,9.35805,-0.669,-0.45000002,1781189433604
2079962038,3,9.318001,-0.66405004,-0.462,1781189433615
2079962048,3,9.306001,-0.64995,-0.46500003,1781189433624
2079962058,3,9.259951,-0.66195005,-0.48405004,1781189433635
2079962068,3,9.234,-0.67605,-0.48405004,1781189433645
2079962078,3,9.238951,-0.67605,-0.52905005,1781189433663
2079962089,3,9.271951,-0.73305005,-0.55605,1781189433665
2079962099,3,9.33195,-0.786,-0.61095005,1781189433675
2079962109,3,9.397051,-0.80295,-0.67095006,1781189433685
2079962119,3,9.45405,-0.78105,-0.70605004,1781189433695
2079962129,3,9.483001,-0.78405005,-0.702,1781189433705
2079962139,3,9.48795,-0.77895004,-0.70605004,1781189433715
2079962149,3,9.47805,-0.74805003,-0.675,1781189433726
2079962159,3,9.49695,-0.74100006,-0.642,1781189433736
2079962169,3,9.5140505,-0.717,-0.59895,1781189433746
2079962179,3,9.483001,-0.69795,-0.54105,1781189433755
2079962189,3,9.46605,-0.68295,-0.52905005,1781189433766
2079962199,3,9.424951,-0.67605,-0.51705,1781189433775
2079962209,3,9.351001,-0.66405004,-0.522,1781189433785
2079962220,3,9.32295,-0.68295,-0.52395004,1781189433796
2079962230,3,9.265051,-0.67095006,-0.54105,1781189433806
2079962240,3,9.23595,-0.68295,-0.53595,1781189433816
2079962250,3,9.232051,-0.71895003,-0.55095005,1781189433826
2079962260,3,9.283951,-0.702,-0.59895,1781189433836
2079962270,3,9.354,-0.73095006,-0.62700003,1781189433846
2079962280,3,9.430051,-0.73800004,-0.675,1781189433856
2079962290,3,9.49995,-0.73800004,-0.67800003,1781189433866
2079962300,3,9.526051,-0.72105,-0.67800003,1781189433876
2079962310,3,9.46605,-0.70695,-0.642,1781189433886
2079962320,3,9.387,-0.66405004,-0.615,1781189433896
2079962330,3,9.295951,-0.67395,-0.55605,1781189433907
2079962340,3,9.21,-0.669,-0.51195,1781189433916
2079962351,3,9.126,-0.68805003,-0.47400004,1781189433927
2079962361,3,9.126,-0.72105,-0.45495003,1781189433937
2079962371,3,9.15705,-0.75495005,-0.45495003,1781189433947
2079962381,3,9.18795,-0.78795004,-0.43800002,1781189433957
2079962391,3,9.247951,-0.84795004,-0.48600003,1781189433967
2079962401,3,9.31305,-0.87495005,-0.55095005,1781189433977
2079962411,3,9.33195,-0.86295,-0.57195,1781189433987
2079962421,3,9.37005,-0.88905007,-0.56295,1781189433997
2079962431,3,9.387,-0.88395005,-0.57195,1781189434007
2079962441,3,9.375,-0.87495005,-0.57000005,1781189434018
2079962451,3,9.351001,-0.846,-0.54795,1781189434027
2079962461,3,9.342,-0.82695,-0.52695,1781189434037
2079962471,3,9.31095,-0.79095006,-0.49095002,1781189434047
2079962482,3,9.295951,-0.76005006,-0.47205,1781189434058
2079962492,3,9.271951,-0.75000006,-0.44295,1781189434068
2079962502,3,9.29895,-0.74505,-0.42600003,1781189434078
2079962512,3,9.318001,-0.74100006,-0.39000002,1781189434088
2079962522,3,9.391951,-0.74505,-0.37800002,1781189434098
2079962532,3,9.4810505,-0.74505,-0.36600003,1781189434108
2079962542,3,9.535951,-0.74295,-0.37800002,1781189434118
2079962552,3,9.580951,-0.726,-0.38295,1781189434128
2079962562,3,9.571951,-0.70905006,-0.402,1781189434138
2079962572,3,9.547951,-0.68295,-0.36600003,1781189434148
2079962582,3,9.4810505,-0.64695,-0.36900002,1781189434159
2079962592,3,9.406051,-0.64995,-0.37800002,1781189434168
2079962602,3,9.306001,-0.60405004,-0.37605003,1781189434179
2079962612,3,9.20505,-0.59205,-0.354,1781189434189
2079962623,3,9.12405,-0.58500004,-0.35895002,1781189434199
2079962633,3,9.093,-0.60705,-0.381,1781189434209
2079962643,3,9.10005,-0.64005005,-0.39495003,1781189434219
2079962653,3,9.13095,-0.67095006,-0.43800002,1781189434230
2079962663,3,9.196051,-0.693,-0.46005002,1781189434238
2079962673,3,9.253051,-0.71895003,-0.453,1781189434249
2079962683,3,9.327001,-0.73305005,-0.45000002,1781189434260
2079962693,3,9.361051,-0.71400005,-0.41700003,1781189434270
2079962703,3,9.36795,-0.71895003,-0.402,1781189434279
2079962713,3,9.30795,-0.669,-0.36195,1781189434289
2079962723,3,9.246,-0.633,-0.32295,1781189434299
2079962733,3,9.18795,-0.61395,-0.28695002,1781189434310
2079962743,3,9.17895,-0.58695,-0.30195,1781189434319
2079962754,3,9.19305,-0.59205,-0.28500003,1781189434330
2079962764,3,9.24405,-0.62295,-0.29700002,1781189434340
2079962774,3,9.35805,-0.642,-0.321,1781189434350
2079962784,3,9.459001,-0.68295,-0.32595003,1781189434361
2079962794,3,9.50895,-0.666,-0.33495003,1781189434370
2079962804,3,9.552,-0.62595004,-0.36600003,1781189434380
2079962814,3,9.556951,-0.597,-0.40005,1781189434390
2079962824,3,9.516001,-0.56295,-0.39795002,1781189434400
2079962834,3,9.45195,-0.537,-0.41205,1781189434410
2079962844,3,9.39,-0.52995,-0.42600003,1781189434420
2079962854,3,9.363001,-0.52995,-0.43095002,1781189434430
2079962864,3,9.315001,-0.537,-0.42600003,1781189434440
2079962874,3,9.283951,-0.56595004,-0.45000002,1781189434451
2079962885,3,9.258,-0.573,-0.45000002,1781189434460
2079962895,3,9.23595,-0.58005005,-0.46005002,1781189434471
2079962905,3,9.222,-0.59895,-0.45495003,1781189434482
2079962915,3,9.220051,-0.65400004,-0.462,1781189434493
2079962925,3,9.208051,-0.67395,-0.462,1781189434502
2079962935,3,9.220051,-0.69495004,-0.43605003,1781189434511
2079962945,3,9.22395,-0.71400005,-0.47400004,1781189434521
2079962955,3,9.262951,-0.75000006,-0.46905002,1781189434531
2079962965,3,9.31095,-0.76005006,-0.51000005,1781189434541
2079962975,3,9.36795,-0.777,-0.52395004,1781189434551
2079962985,3,9.423,-0.78405005,-0.55305004,1781189434562
2079962995,3,9.45405,-0.777,-0.55305004,1781189434572
2079963005,3,9.4810505,-0.75000006,-0.55305004,1781189434583
2079963015,3,9.493051,-0.74505,-0.55305004,1781189434591
2079963026,3,9.50205,-0.71400005,-0.56505,1781189434601
2079963036,3,9.495001,-0.70005006,-0.53205,1781189434612
2079963046,3,9.50205,-0.69495004,-0.52695,1781189434622
2079963056,3,9.519,-0.71205,-0.52695,1781189434632
2079963066,3,9.516001,-0.702,-0.53205,1781189434642
2079963076,3,9.547951,-0.70005006,-0.54105,1781189434652
2079963086,3,9.559951,-0.70905006,-0.54105,1781189434663
2079963096,3,9.550051,-0.702,-0.58005005,1781189434673
2079963106,3,9.516001,-0.69000006,-0.60795003,1781189434682
2079963116,3,9.43995,-0.68100005,-0.60300004,1781189434692
2079963126,3,9.351001,-0.67800003,-0.606,1781189434703
2079963136,3,9.262951,-0.61095005,-0.58005005,1781189434712
2079963146,3,9.17205,-0.60195005,-0.56805,1781189434723
2079963157,3,9.114,-0.60195005,-0.546,1781189434733
2079963167,3,9.118951,-0.61095005,-0.53895,1781189434743
2079963177,3,9.14295,-0.65205,-0.558,1781189434753
2079963187,3,9.214951,-0.67395,-0.60105,1781189434763
2079963197,3,9.279,-0.72900003,-0.63900006,1781189434773
2079963207,3,9.327001,-0.77400005,-0.675,1781189434783
2079963217,3,9.354,-0.77895004,-0.70395005,1781189434793
2079963227,3,9.35805,-0.76500005,-0.69705003,1781189434803
2079963237,3,9.406051,-0.76500005,-0.67095006,1781189434813
2079963247,3,9.40905,-0.74100006,-0.65400004,1781189434823
2079963257,3,9.387,-0.71400005,-0.61800003,1781189434835
2079963267,3,9.39,-0.70500004,-0.60795003,1781189434845
2079963277,3,9.39,-0.69795,-0.59895,1781189434853
2079963288,3,9.366,-0.68805003,-0.59400004,1781189434863
2079963298,3,9.3820505,-0.68805003,-0.62295,1781189434874
2079963308,3,9.373051,-0.70905006,-0.615,1781189434884
2079963318,3,9.402,-0.69795,-0.63195,1781189434894
2079963328,3,9.424951,-0.72405005,-0.62295,1781189434906
2079963338,3,9.411,-0.726,-0.59205,1781189434914
2079963348,3,9.375,-0.68805003,-0.57195,1781189434923
2079963358,3,9.34605,-0.68805003,-0.53400004,1781189434934
2079963368,3,9.315001,-0.666,-0.45705003,1781189434944
2079963378,3,9.27,-0.66195005,-0.41700003,1781189434955
2079963388,3,9.22395,-0.633,-0.39795002,1781189434965
2079963398,3,9.21195,-0.63795,-0.39495003,1781189434974
2079963408,3,9.21,-0.64005005,-0.402,1781189434984
2079963418,3,9.19995,-0.66405004,-0.44805002,1781189434994
2079963429,3,9.15495,-0.64995,-0.44505003,1781189435004
2079963439,3,9.141001,-0.61095005,-0.45495003,1781189435015
2079963449,3,9.13605,-0.60705,-0.45000002,1781189435026
2079963459,3,9.16695,-0.58995,-0.44505003,1781189435035
2079963469,3,9.226951,-0.58500004,-0.45000002,1781189435045
2079963479,3,9.27705,-0.609,-0.47205,1781189435055
2079963489,3,9.30105,-0.64005005,-0.47700003,1781189435067
2079963499,3,9.330001,-0.65400004,-0.50295,1781189435076
2079963509,3,9.35595,-0.64695,-0.52905005,1781189435086
2079963519,3,9.378,-0.657,-0.50295,1781189435095
2079963529,3,9.411,-0.66195005,-0.51000005,1781189435105
2079963539,3,9.45405,-0.69495004,-0.50505,1781189435116
2079963549,3,9.48495,-0.69495004,-0.50100005,1781189435126
2079963560,3,9.48495,-0.69495004,-0.49305,1781189435136
2079963570,3,9.5140505,-0.70005006,-0.47400004,1781189435145
2079963580,3,9.47595,-0.69795,-0.45000002,1781189435156
2079963590,3,9.43995,-0.693,-0.41400003,1781189435166
2079963600,3,9.42105,-0.67605,-0.402,1781189435176
2079963610,3,9.39,-0.66195005,-0.37395,1781189435186
2079963620,3,9.351001,-0.657,-0.37605003,1781189435197
2079963630,3,9.3490505,-0.61605,-0.41205,1781189435206
2079963640,3,9.378,-0.60405004,-0.42195,1781189435217
2079963650,3,9.387,-0.59895,-0.44805002,1781189435227
2079963660,3,9.391951,-0.57495004,-0.46500003,1781189435236
2079963670,3,9.361051,-0.53205,-0.48105,1781189435249
2079963680,3,9.330001,-0.48900002,-0.49305,1781189435256
2079963691,3,9.28905,-0.47700003,-0.48600003,1781189435266
2079963701,3,9.267,-0.492,-0.50295,1781189435276
2079963711,3,9.232051,-0.49605003,-0.49095002,1781189435287
2079963721,3,9.20505,-0.53895,-0.49800003,1781189435297
2079963731,3,9.19305,-0.56295,-0.48600003,1781189435307
2079963741,3,9.186001,-0.58695,-0.47400004,1781189435316
2079963751,3,9.198001,-0.58500004,-0.462,1781189435328
2079963761,3,9.222,-0.61395,-0.52905005,1781189435337
2079963771,3,9.267,-0.62595004,-0.52905005,1781189435348
2079963781,3,9.31095,-0.66195005,-0.57495004,1781189435363
2079963791,3,9.34395,-0.63795,-0.606,1781189435367
2079963801,3,9.35595,-0.66195005,-0.64905006,1781189435378
2079963811,3,9.363001,-0.642,-0.67095006,1781189435387
2079963821,3,9.363001,-0.64500004,-0.666,1781189435397
2079963832,3,9.430051,-0.63495004,-0.67305005,1781189435408
2079963842,3,9.48795,-0.64005005,-0.66795003,1781189435418
2079963852,3,9.540001,-0.64500004,-0.64905006,1781189435428
2079963862,3,9.580951,-0.65205,-0.642,1781189435438
2079963872,3,9.61005,-0.633,-0.60300004,1781189435448
2079963882,3,9.64605,-0.63000005,-0.606,1781189435458
2079963892,3,9.603001,-0.61800003,-0.57195,1781189435468
2079963902,3,9.53295,-0.60405004,-0.55305004,1781189435479
2079963912,3,9.4470005,-0.58305,-0.48600003,1781189435488
2079963922,3,9.3820505,-0.56805,-0.462,1781189435499
2079963932,3,9.315001,-0.55095005,-0.43095002,1781189435508
2079963942,3,9.24405,-0.52995,-0.42405003,1781189435519
2079963952,3,9.17205,-0.537,-0.43305,1781189435528
2079963963,3,9.121051,-0.51600003,-0.453,1781189435539
2079963973,3,9.10005,-0.53505003,-0.453,1781189435549
2079963983,3,9.066,-0.54705,-0.49605003,1781189435560
2079963993,3,9.057,-0.58005005,-0.50295,1781189435569
2079964003,3,9.102,-0.62100005,-0.57000005,1781189435579
2079964013,3,9.14295,-0.63000005,-0.59895,1781189435590
2079964023,3,9.15705,-0.65400004,-0.63705003,1781189435599
2079964033,3,9.19305,-0.65895003,-0.66105,1781189435609
2079964043,3,9.27705,-0.68805003,-0.67995006,1781189435619
2079964053,3,9.366,-0.72405005,-0.71805006,1781189435629
2079964063,3,9.46905,-0.762,-0.73800004,1781189435639
2079964073,3,9.535951,-0.74505,-0.74205005,1781189435650
2079964083,3,9.61695,-0.76500005,-0.71805006,1781189435659
2079964094,3,9.66495,-0.753,-0.69405,1781189435670
2079964104,3,9.672001,-0.74100006,-0.64395005,1781189435680
2079964114,3,9.64095,-0.72405005,-0.57000005,1781189435690
2079964124,3,9.580951,-0.71400005,-0.47205,1781189435700
2079964134,3,9.519,-0.71400005,-0.42405003,1781189435710
2079964144,3,9.4810505,-0.71205,-0.37395,1781189435720
2079964154,3,9.4470005,-0.72105,-0.32805002,1781189435730
2079964164,3,9.427951,-0.71895003,-0.32595003,1781189435740
2079964174,3,9.411,-0.726,-0.31095,1781189435750
2079964184,3,9.411,-0.71895003,-0.32805002,1781189435760
2079964194,3,9.460951,-0.717,-0.34695002,1781189435770
2079964204,3,9.48495,-0.73800004,-0.39495003,1781189435781
2079964214,3,9.460951,-0.71895003,-0.43305,1781189435791
2079964224,3,9.418051,-0.69000006,-0.462,1781189435801
2079964235,3,9.342,-0.68295,-0.49605003,1781189435811
2079964245,3,9.27705,-0.65205,-0.50100005,1781189435823
2079964255,3,9.21195,-0.61095005,-0.52395004,1781189435832
2079964265,3,9.17895,-0.597,-0.52905005,1781189435841
2079964275,3,9.17595,-0.59505004,-0.56805,1781189435850
2079964285,3,9.16005,-0.60195005,-0.58005005,1781189435860
2079964295,3,9.150001,-0.61605,-0.58695,1781189435871
2079964305,3,9.19995,-0.64500004,-0.59595,1781189435883
2079964315,3,9.24405,-0.64500004,-0.57705003,1781189435891
2079964325,3,9.30795,-0.69795,-0.57000005,1781189435901
2079964335,3,9.35595,-0.702,-0.558,1781189435911
2079964345,3,9.403951,-0.74295,-0.55605,1781189435921
2079964355,3,9.460951,-0.76005006,-0.53895,1781189435931
2079964366,3,9.5119505,-0.76005006,-0.51000005,1781189435942
2079964376,3,9.538051,-0.75000006,-0.48405004,1781189435952
2079964386,3,9.571951,-0.753,-0.42600003,1781189435962
2079964396,3,9.567,-0.74505,-0.40995002,1781189435972
2079964406,3,9.519,-0.72405005,-0.37800002,1781189435982
2079964416,3,9.43305,-0.70005006,-0.36195,1781189435992
2079964426,3,9.35595,-0.666,-0.33495003,1781189436002
2079964436,3,9.28695,-0.66195005,-0.35205,1781189436012
2079964446,3,9.241051,-0.63795,-0.34005,1781189436022
2079964456,3,9.24405,-0.642,-0.34500003,1781189436032
2079964466,3,9.267,-0.657,-0.36600003,1781189436043
2079964476,3,9.283951,-0.64995,-0.39495003,1781189436053
2079964486,3,9.33195,-0.657,-0.43305,1781189436063
2079964497,3,9.34605,-0.64695,-0.48405004,1781189436074
2079964507,3,9.394051,-0.65895003,-0.51495004,1781189436082
2079964517,3,9.378,-0.62595004,-0.52695,1781189436095
2079964527,3,9.361051,-0.60705,-0.53205,1781189436103
2079964537,3,9.34395,-0.58305,-0.54405004,1781189436113
2079964547,3,9.271951,-0.573,-0.53205,1781189436123
2079964557,3,9.21195,-0.55905,-0.48405004,1781189436133
2079964567,3,9.150001,-0.56100005,-0.441,1781189436143
2079964577,3,9.117001,-0.56100005,-0.40500003,1781189436153
2079964587,3,9.13605,-0.59205,-0.40995002,1781189436163
2079964597,3,9.186001,-0.61395,-0.41700003,1781189436173
2079964607,3,9.283951,-0.64995,-0.44295,1781189436183
2079964617,3,9.366,-0.68595004,-0.48105,1781189436194
2079964627,3,9.460951,-0.702,-0.51705,1781189436204
2079964638,3,9.507001,-0.69000006,-0.50295,1781189436214
2079964648,3,9.504001,-0.65400004,-0.50100005,1781189436224
2079964658,3,9.50205,-0.62595004,-0.462,1781189436234
2079964668,3,9.47295,-0.59895,-0.42405003,1781189436244
2079964678,3,9.40905,-0.53895,-0.40995002,1781189436254
2079964688,3,9.391951,-0.537,-0.40500003,1781189436264
2079964698,3,9.35595,-0.537,-0.381,1781189436274
2079964708,3,9.330001,-0.549,-0.40695003,1781189436284
2079964718,3,9.31995,-0.537,-0.43095002,1781189436294
2079964728,3,9.32505,-0.55095005,-0.47205,1781189436306
2079964738,3,9.3490505,-0.59895,-0.49095002,1781189436315
2079964748,3,9.378,-0.61800003,-0.51495004,1781189436324
2079964758,3,9.402,-0.62595004,-0.52695,1781189436335
2079964769,3,9.403951,-0.63795,-0.54105,1781189436345
2079964779,3,9.375,-0.63495004,-0.52395004,1781189436355
2079964789,3,9.33705,-0.60405004,-0.54795,1781189436365
2079964799,3,9.28905,-0.61095005,-0.52695,1781189436375
2079964809,3,9.279,-0.59505004,-0.54105,1781189436385
2079964819,3,9.259951,-0.58005005,-0.53400004,1781189436395
2079964829,3,9.253051,-0.58695,-0.52905005,1781189436405
2079964839,3,9.234,-0.573,-0.51705,1781189436415
2079964849,3,9.208051,-0.58305,-0.52395004,1781189436425
2079964859,3,9.208051,-0.60195005,-0.53895,1781189436435
2079964869,3,9.222,-0.62100005,-0.55305004,1781189436446
2079964879,3,9.247951,-0.64005005,-0.58395004,1781189436455
2079964889,3,9.303,-0.66195005,-0.58905005,1781189436466
2079964900,3,9.385051,-0.67800003,-0.60105,1781189436475
2079964910,3,9.44205,-0.68805003,-0.58695,1781189436486
2079964920,3,9.49005,-0.717,-0.59400004,1781189436496
2079964930,3,9.543,-0.702,-0.59205,1781189436506
2079964940,3,9.556951,-0.70695,-0.57195,1781189436516
2079964950,3,9.559951,-0.693,-0.55605,1781189436527
2079964960,3,9.538051,-0.68805003,-0.55095005,1781189436536
2079964970,3,9.48795,-0.67605,-0.522,1781189436546
2079964980,3,9.4470005,-0.657,-0.49605003,1781189436558
2079964990,3,9.423,-0.66405004,-0.47895002,1781189436567
2079965000,3,9.39,-0.65205,-0.45705003,1781189436577
2079965010,3,9.397051,-0.67095006,-0.46905002,1781189436586
2079965020,3,9.44505,-0.69495004,-0.49605003,1781189436598
2079965030,3,9.48795,-0.71205,-0.52395004,1781189436607
2079965041,3,9.47805,-0.71400005,-0.558,1781189436617
2079965051,3,9.43305,-0.693,-0.55095005,1781189436627
2079965061,3,9.375,-0.67605,-0.558,1781189436637
2079965071,3,9.315001,-0.666,-0.55095005,1781189436647
2079965081,3,9.253051,-0.66405004,-0.54105,1781189436658
2079965091,3,9.19095,-0.67605,-0.53595,1781189436667
2079965101,3,9.15495,-0.657,-0.55095005,1781189436677
2079965111,3,9.150001,-0.68805003,-0.57495004,1781189436687
2079965121,3,9.14805,-0.68100005,-0.55095005,1781189436697
2079965131,3,9.17595,-0.70500004,-0.57195,1781189436707
2079965141,3,9.21195,-0.72405005,-0.59205,1781189436718
2079965151,3,9.29895,-0.73305005,-0.606,1781189436727
2079965161,3,9.363001,-0.73605,-0.63900006,1781189436738
2079965172,3,9.415951,-0.71895003,-0.63705003,1781189436748
2079965182,3,9.415951,-0.72900003,-0.63000005,1781189436758
2079965192,3,9.406051,-0.70695,-0.59595,1781189436768
2079965202,3,9.403951,-0.693,-0.57705003,1781189436778
2079965212,3,9.411,-0.69000006,-0.558,1781189436788
2079965222,3,9.406051,-0.67800003,-0.53595,1781189436798
2079965232,3,9.36795,-0.64005005,-0.49800003,1781189436808
2079965242,3,9.34605,-0.63795,-0.45705003,1781189436818
2079965252,3,9.327001,-0.63000005,-0.45000002,1781189436829
2079965262,3,9.29895,-0.64695,-0.42405003,1781189436839
2079965272,3,9.28905,-0.63495004,-0.42600003,1781189436849
2079965282,3,9.294001,-0.64005005,-0.43095002,1781189436859
2079965292,3,9.330001,-0.64500004,-0.453,1781189436869
2079965303,3,9.361051,-0.65895003,-0.46695003,1781189436878
2079965313,3,9.363001,-0.66195005,-0.50295,1781189436888
2079965323,3,9.31995,-0.63000005,-0.50295,1781189436899
2079965333,3,9.27495,-0.59205,-0.48405004,1781189436908
2079965343,3,9.247951,-0.57795,-0.45000002,1781189436919
2079965353,3,9.19305,-0.56295,-0.402,1781189436929
2079965363,3,9.15705,-0.57105005,-0.41205,1781189436939
2079965373,3,9.162001,-0.55905,-0.402,1781189436949
2079965383,3,9.16695,-0.57495004,-0.42405003,1781189436959
2079965393,3,9.2029505,-0.61605,-0.45705003,1781189436969
2079965403,3,9.222,-0.633,-0.47700003,1781189436979
2079965413,3,9.253051,-0.65895003,-0.47205,1781189436989
2079965423,3,9.30795,-0.66195005,-0.47205,1781189436999
2079965433,3,9.373051,-0.68595004,-0.46905002,1781189437009
2079965444,3,9.394051,-0.702,-0.44805002,1781189437019
2079965454,3,9.4470005,-0.70500004,-0.462,1781189437029
2079965464,3,9.44505,-0.70005006,-0.453,1781189437039
2079965474,3,9.46395,-0.702,-0.43605003,1781189437050
2079965484,3,9.47595,-0.68295,-0.41895002,1781189437060
2079965494,3,9.459001,-0.66195005,-0.42405003,1781189437069
2079965504,3,9.411,-0.62595004,-0.38805002,1781189437079
2079965514,3,9.354,-0.58995,-0.36405003,1781189437090
2079965524,3,9.363001,-0.55095005,-0.381,1781189437100
2079965534,3,9.37005,-0.56100005,-0.35205,1781189437109
2079965544,3,9.394051,-0.56100005,-0.31905,1781189437120
2079965554,3,9.394051,-0.54705,-0.31095,1781189437130
2079965564,3,9.423,-0.56595004,-0.33795002,1781189437140
2079965575,3,9.460951,-0.57105005,-0.35700002,1781189437150
2079965585,3,9.46395,-0.57105005,-0.39000002,1781189437160
2079965595,3,9.45705,-0.55095005,-0.41400003,1781189437171
2079965605,3,9.375,-0.53505003,-0.39000002,1781189437181
2079965615,3,9.30105,-0.52500004,-0.38805002,1781189437191
2079965625,3,9.23595,-0.50100005,-0.36900002,1781189437201
2079965635,3,9.18795,-0.50805,-0.37395,1781189437211
2079965645,3,9.16695,-0.49395,-0.39000002,1781189437221
2079965655,3,9.153001,-0.51795,-0.42600003,1781189437231
2079965665,3,9.14295,-0.54705,-0.44295,1781189437241
2079965675,3,9.14805,-0.55905,-0.47205,1781189437251
2079965685,3,9.208051,-0.58005005,-0.49605003,1781189437261
2079965695,3,9.291,-0.62100005,-0.55605,1781189437271
2079965706,3,9.366,-0.66405004,-0.59205,1781189437282
2079965716,3,9.4140005,-0.669,-0.642,1781189437291
2079965726,3,9.471001,-0.67395,-0.67305005,1781189437302
2079965736,3,9.526051,-0.67095006,-0.68205005,1781189437312
2079965746,3,9.50205,-0.64500004,-0.66105,1781189437322
2079965756,3,9.495001,-0.61800003,-0.62700003,1781189437332
2079965766,3,9.47295,-0.60705,-0.59895,1781189437342
2079965776,3,9.44505,-0.597,-0.56505,1781189437352
2079965786,3,9.43305,-0.55905,-0.51195,1781189437362
2079965796,3,9.375,-0.55095005,-0.50295,1781189437372
2079965806,3,9.375,-0.58500004,-0.49305,1781189437382
2079965816,3,9.39,-0.59205,-0.50100005,1781189437392
2079965826,3,9.406051,-0.60195005,-0.49305,1781189437402
2079965836,3,9.411,-0.62805,-0.52005005,1781189437412
2079965847,3,9.436951,-0.62595004,-0.52905005,1781189437423
2079965857,3,9.430051,-0.597,-0.53595,1781189437433
2079965867,3,9.436951,-0.58005005,-0.558,1781189437443
2079965877,3,9.424951,-0.573,-0.57495004,1781189437453
2079965887,3,9.415951,-0.53505003,-0.61305004,1781189437463
2079965897,3,9.366,-0.54195005,-0.63705003,1781189437474
2079965907,3,9.303,-0.52305,-0.651,1781189437483
2079965917,3,9.27705,-0.54705,-0.67095006,1781189437493
2079965927,3,9.262951,-0.55605,-0.67095006,1781189437505
2079965937,3,9.24405,-0.573,-0.65895003,1781189437516
2079965947,3,9.23595,-0.62100005,-0.666,1781189437524
2079965957,3,9.250951,-0.693,-0.66105,1781189437536
2079965967,3,9.259951,-0.753,-0.68505,1781189437544
2079965978,3,9.30795,-0.786,-0.71400005,1781189437554
2079965988,3,9.330001,-0.85305005,-0.735,1781189437564
2079965998,3,9.3820505,-0.85305005,-0.72795004,1781189437574
2079966008,3,9.43305,-0.85305005,-0.73995006,1781189437584
2079966018,3,9.483001,-0.846,-0.73005,1781189437594
2079966028,3,9.535951,-0.82395005,-0.702,1781189437605
2079966038,3,9.591001,-0.81195,-0.67800003,1781189437614
2079966048,3,9.6,-0.75705004,-0.63900006,1781189437625
2079966058,3,9.61005,-0.717,-0.60300004,1781189437634
2079966068,3,9.547951,-0.68100005,-0.56505,1781189437644
2079966078,3,9.49995,-0.65895003,-0.53595,1781189437655
2079966088,3,9.40905,-0.63795,-0.51195,1781189437664
2079966098,3,9.379951,-0.63495004,-0.49605003,1781189437674
2079966109,3,9.354,-0.65205,-0.48600003,1781189437685
2079966119,3,9.361051,-0.669,-0.49305,1781189437696
2079966129,3,9.37005,-0.65895003,-0.50505,1781189437706
2079966139,3,9.361051,-0.642,-0.50805,1781189437715
2079966149,3,9.34395,-0.63795,-0.51195,1781189437725
2079966159,3,9.294001,-0.63795,-0.52695,1781189437735
2079966169,3,9.24405,-0.62595004,-0.52905005,1781189437745
2079966179,3,9.17895,-0.60705,-0.522,1781189437755
2079966189,3,9.150001,-0.58005005,-0.47400004,1781189437765
2079966199,3,9.13305,-0.55095005,-0.43095002,1781189437775
2079966209,3,9.150001,-0.58995,-0.462,1781189437785
2079966219,3,9.19995,-0.65895003,-0.50805,1781189437795
2079966229,3,9.282001,-0.72105,-0.57000005,1781189437806
2079966240,3,9.385051,-0.762,-0.63900006,1781189437816
2079966250,3,9.44505,-0.79800004,-0.69705003,1781189437827
2079966260,3,9.460951,-0.77400005,-0.74205005,1781189437837
2079966270,3,9.427951,-0.70905006,-0.702,1781189437847
2079966280,3,9.379951,-0.65400004,-0.63705003,1781189437857
2079966290,3,9.36795,-0.61605,-0.54795,1781189437866
2079966300,3,9.363001,-0.56805,-0.47205,1781189437876
2079966310,3,9.354,-0.55395,-0.40500003,1781189437887
2079966320,3,9.35595,-0.52305,-0.393,1781189437898
2079966330,3,9.361051,-0.51600003,-0.37395,1781189437907
2079966340,3,9.3490505,-0.504,-0.393,1781189437916
2079966350,3,9.31995,-0.492,-0.35895002,1781189437928
2079966360,3,9.315001,-0.48900002,-0.37095,1781189437937
2079966370,3,9.29895,-0.49395,-0.38595003,1781189437946
2079966381,3,9.306001,-0.504,-0.38805002,1781189437957
2079966391,3,9.34395,-0.49905002,-0.39795002,1781189437967
2079966401,3,9.397051,-0.52005005,-0.40500003,1781189437977
2079966411,3,9.430051,-0.53505003,-0.453,1781189437987
2079966421,3,9.46905,-0.52995,-0.44505003,1781189437997
2079966431,3,9.471001,-0.52500004,-0.42900002,1781189438007
2079966441,3,9.46395,-0.51105005,-0.40005,1781189438017
2079966451,3,9.411,-0.49905002,-0.37095,1781189438027
2079966461,3,9.35805,-0.492,-0.33495003,1781189438038
2079966471,3,9.279,-0.49605003,-0.34995002,1781189438047
2079966481,3,9.19995,-0.52005005,-0.34995002,1781189438057
2079966491,3,9.1380005,-0.52305,-0.38805002,1781189438067
2079966501,3,9.1050005,-0.54405004,-0.42405003,1781189438078
2079966512,3,9.085951,-0.56100005,-0.43605003,1781189438088
2079966522,3,9.10005,-0.573,-0.47400004,1781189438097
2079966532,3,9.10005,-0.597,-0.48900002,1781189438108
2079966542,3,9.196051,-0.60705,-0.51000005,1781189438118
2079966552,3,9.258,-0.60705,-0.522,1781189438128
2079966562,3,9.339001,-0.59205,-0.51495004,1781189438138
2079966572,3,9.406051,-0.55905,-0.51195,1781189438148
2079966582,3,9.495001,-0.54705,-0.49305,1781189438158
2079966592,3,9.535951,-0.528,-0.49800003,1781189438169
2079966602,3,9.576,-0.504,-0.44295,1781189438178
2079966612,3,9.567,-0.46800002,-0.41700003,1781189438188
2079966622,3,9.523951,-0.441,-0.38295,1781189438198
2079966632,3,9.4810505,-0.43695003,-0.35700002,1781189438209
2079966643,3,9.42105,-0.41295,-0.34305,1781189438219
2079966653,3,9.375,-0.42000002,-0.34695002,1781189438229
2079966663,3,9.342,-0.45105,-0.34500003,1781189438238
2079966673,3,9.351001,-0.46500003,-0.38595003,1781189438249
2079966683,3,9.35595,-0.50805,-0.40995002,1781189438259
2079966693,3,9.36795,-0.528,-0.46005002,1781189438269
2079966703,3,9.361051,-0.55395,-0.49305,1781189438279
2079966713,3,9.33195,-0.53895,-0.51195,1781189438289
2079966723,3,9.315001,-0.56100005,-0.546,1781189438300
2079966733,3,9.27705,-0.549,-0.57195,1781189438309
2079966743,3,9.238951,-0.549,-0.60105,1781189438319
2079966753,3,9.220051,-0.54705,-0.60795003,1781189438329
2079966763,3,9.217051,-0.54705,-0.63000005,1781189438339
2079966773,3,9.19305,-0.537,-0.62505,1781189438350
2079966784,3,9.20505,-0.52500004,-0.60795003,1781189438360
2079966794,3,9.27705,-0.56805,-0.62295,1781189438370
2079966804,3,9.31095,-0.57105005,-0.62505,1781189438380
2079966814,3,9.3820505,-0.60195005,-0.62700003,1781189438390
2079966824,3,9.427951,-0.61800003,-0.61995006,1781189438400
2079966834,3,9.46605,-0.609,-0.62505,1781189438410
2079966844,3,9.48795,-0.58305,-0.58695,1781189438420
2079966854,3,9.523951,-0.58695,-0.54105,1781189438430
2079966864,3,9.552,-0.58005005,-0.51195,1781189438440
2079966874,3,9.547951,-0.573,-0.48405004,1781189438450
2079966884,3,9.535951,-0.58500004,-0.46005002,1781189438460
2079966894,3,9.49005,-0.57105005,-0.46695003,1781189438470
2079966904,3,9.46605,-0.58695,-0.48405004,1781189438482
2079966915,3,9.459001,-0.63000005,-0.50100005,1781189438490
2079966925,3,9.46395,-0.64695,-0.51495004,1781189438501
2079966935,3,9.4810505,-0.69795,-0.56505,1781189438511
2079966945,3,9.49995,-0.73095006,-0.61800003,1781189438521
2079966955,3,9.49695,-0.75495005,-0.66795003,1781189438531
2079966965,3,9.495001,-0.76905006,-0.67800003,1781189438541
2079966975,3,9.4470005,-0.74295,-0.702,1781189438551
2079966985,3,9.397051,-0.75495005,-0.73305005,1781189438561
2079966995,3,9.330001,-0.71895003,-0.75405,1781189438572
2079967005,3,9.253051,-0.702,-0.74505,1781189438584
2079967015,3,9.21,-0.68595004,-0.72795004,1781189438591
2079967025,3,9.150001,-0.70500004,-0.70605004,1781189438604
2079967035,3,9.118951,-0.68595004,-0.66795003,1781189438612
2079967046,3,9.102,-0.70005006,-0.64695,1781189438622
2079967056,3,9.14505,-0.71895003,-0.651,1781189438632
2079967066,3,9.196051,-0.72405005,-0.63195,1781189438642
2079967076,3,9.226951,-0.71205,-0.63495004,1781189438652
2079967086,3,9.262951,-0.702,-0.62700003,1781189438662
2079967096,3,9.30105,-0.669,-0.63000005,1781189438672
2079967106,3,9.35595,-0.65895003,-0.61305004,1781189438682
2079967116,3,9.394051,-0.64995,-0.58905005,1781189438692
2079967126,3,9.45195,-0.62805,-0.56505,1781189438702
2079967136,3,9.47595,-0.61095005,-0.546,1781189438713
2079967146,3,9.50895,-0.61395,-0.52905005,1781189438723
2079967156,3,9.52095,-0.60705,-0.51495004,1781189438732
2079967166,3,9.5119505,-0.61095005,-0.50100005,1781189438743
2079967176,3,9.4810505,-0.60405004,-0.48900002,1781189438753
2079967187,3,9.40905,-0.609,-0.47205,1781189438762
2079967197,3,9.327001,-0.61095005,-0.45705003,1781189438773
2079967207,3,9.295951,-0.63795,-0.46695003,1781189438783
2079967217,3,9.294001,-0.64695,-0.47400004,1781189438793
2079967227,3,9.306001,-0.666,-0.49305,1781189438803
2079967237,3,9.29895,-0.67395,-0.522,1781189438813
2079967247,3,9.28695,-0.66195005,-0.53205,1781189438823
2079967257,3,9.282001,-0.65895003,-0.53895,1781189438835
2079967267,3,9.258,-0.657,-0.55305004,1781189438844
2079967277,3,9.232051,-0.62595004,-0.55305004,1781189438853
2079967287,3,9.19095,-0.60405004,-0.54795,1781189438863
2079967297,3,9.16005,-0.59205,-0.522,1781189438873
2079967307,3,9.13305,-0.58695,-0.49305,1781189438883
2079967318,3,9.16905,-0.59895,-0.47895002,1781189438894
2079967328,3,9.208051,-0.60705,-0.48105,1781189438904
2079967338,3,9.295951,-0.64005005,-0.49095002,1781189438914
2079967348,3,9.378,-0.66405004,-0.49095002,1781189438924
2079967358,3,9.47295,-0.666,-0.48900002,1781189438934
2079967368,3,9.535951,-0.67095006,-0.47895002,1781189438944
2079967378,3,9.540001,-0.67605,-0.45000002,1781189438954
2079967388,3,9.49695,-0.64695,-0.41400003,1781189438964
2079967398,3,9.436951,-0.62295,-0.38295,1781189438974
2079967408,3,9.385051,-0.61605,-0.36900002,1781189438984
2079967418,3,9.354,-0.60705,-0.35205,1781189438996
2079967428,3,9.327001,-0.61395,-0.34695002,1781189439006
2079967438,3,9.366,-0.60705,-0.333,1781189439014
2079967449,3,9.397051,-0.633,-0.354,1781189439024
2079967459,3,9.4140005,-0.63000005,-0.34995002,1781189439035
2079967469,3,9.42105,-0.64500004,-0.37395,1781189439045
2079967479,3,9.394051,-0.633,-0.39495003,1781189439056
2079967489,3,9.36795,-0.62595004,-0.41205,1781189439066
2079967499,3,9.339001,-0.59895,-0.42405003,1781189439075
2079967509,3,9.31095,-0.59505004,-0.41700003,1781189439085
2079967519,3,9.29895,-0.58995,-0.441,1781189439095
2079967529,3,9.31305,-0.56295,-0.45495003,1781189439105
2079967539,3,9.294001,-0.56100005,-0.46005002,1781189439115
2079967549,3,9.28905,-0.54195005,-0.453,1781189439126
2079967559,3,9.283951,-0.56595004,-0.45705003,1781189439135
2079967569,3,9.28695,-0.573,-0.46005002,1781189439145
2079967579,3,9.282001,-0.597,-0.45495003,1781189439156
2079967590,3,9.279,-0.59895,-0.45495003,1781189439165
2079967600,3,9.279,-0.63000005,-0.44805002,1781189439176
2079967610,3,9.267,-0.64500004,-0.44805002,1781189439186
2079967620,3,9.291,-0.64500004,-0.462,1781189439196
2079967630,3,9.303,-0.666,-0.47205,1781189439206
2079967640,3,9.32295,-0.666,-0.47895002,1781189439216
2079967650,3,9.34605,-0.67095006,-0.49305,1781189439226
2079967660,3,9.385051,-0.642,-0.50100005,1781189439236
2079967670,3,9.459001,-0.63795,-0.52695,1781189439246
2079967680,3,9.5140505,-0.63000005,-0.55095005,1781189439256
2079967690,3,9.540001,-0.63000005,-0.55605,1781189439267
2079967700,3,9.49695,-0.60405004,-0.55995005,1781189439277
2079967710,3,9.460951,-0.58005005,-0.52905005,1781189439287
2079967721,3,9.403951,-0.58005005,-0.49305,1781189439297
2079967731,3,9.351001,-0.537,-0.48405004,1781189439306
2079967741,3,9.327001,-0.54195005,-0.45000002,1781189439317
2079967751,3,9.306001,-0.54405004,-0.44505003,1781189439327
2079967761,3,9.33495,-0.56805,-0.46005002,1781189439337
2079967771,3,9.387,-0.57495004,-0.49095002,1781189439347
2079967781,3,9.43305,-0.59895,-0.53400004,1781189439357
2079967791,3,9.47295,-0.62805,-0.582,1781189439367
2079967801,3,9.493051,-0.633,-0.59400004,1781189439377
2079967811,3,9.47295,-0.61800003,-0.61095005,1781189439387
2079967821,3,9.43995,-0.60195005,-0.60795003,1781189439397
2079967831,3,9.42105,-0.59205,-0.62295,1781189439408
2079967841,3,9.34605,-0.573,-0.60300004,1781189439418
2079967852,3,9.294001,-0.57105005,-0.60795003,1781189439427
2079967862,3,9.241051,-0.597,-0.58395004,1781189439438
2079967872,3,9.186001,-0.58995,-0.57495004,1781189439448
2079967882,3,9.16905,-0.61800003,-0.58905005,1781189439458
2079967892,3,9.18795,-0.63495004,-0.59595,1781189439468
2079967902,3,9.259951,-0.68100005,-0.642,1781189439478
2079967912,3,9.303,-0.71400005,-0.65895003,1781189439489
2079967922,3,9.34395,-0.73095006,-0.68700004,1781189439498
2079967932,3,9.354,-0.71400005,-0.68205005,1781189439511
2079967942,3,9.375,-0.70695,-0.69405,1781189439519
2079967952,3,9.411,-0.69795,-0.67995006,1781189439528
2079967962,3,9.435,-0.669,-0.65895003,1781189439538
2079967972,3,9.459001,-0.65400004,-0.65400004,1781189439548
2079967982,3,9.48795,-0.61605,-0.615,1781189439559
2079967993,3,9.48795,-0.63495004,-0.60300004,1781189439570
2079968003,3,9.460951,-0.62595004,-0.58695,1781189439579
2079968013,3,9.46905,-0.61605,-0.57705003,1781189439589
2079968023,3,9.4470005,-0.61395,-0.56805,1781189439599
2079968033,3,9.403951,-0.60195005,-0.54105,1781189439609
2079968043,3,9.34395,-0.62100005,-0.51705,1781189439619
2079968053,3,9.306001,-0.59895,-0.53595,1781189439629
2079968063,3,9.282001,-0.59505004,-0.52395004,1781189439638
2079968073,3,9.29895,-0.62295,-0.53205,1781189439649
2079968083,3,9.31305,-0.633,-0.56295,1781189439659
2079968093,3,9.31305,-0.64500004,-0.57000005,1781189439669
2079968103,3,9.29895,-0.64500004,-0.55995005,1781189439679
2079968113,3,9.303,-0.62100005,-0.58905005,1781189439689
2079968124,3,9.30105,-0.64005005,-0.61305004,1781189439700
2079968134,3,9.283951,-0.633,-0.606,1781189439711
2079968144,3,9.241051,-0.62805,-0.59895,1781189439720
2079968154,3,9.21195,-0.61605,-0.582,1781189439730
2079968164,3,9.20505,-0.63795,-0.54405004,1781189439740
2079968174,3,9.2029505,-0.63000005,-0.56295,1781189439750
2079968184,3,9.220051,-0.65895003,-0.55995005,1781189439760
2079968194,3,9.279,-0.67095006,-0.55605,1781189439771
2079968204,3,9.30105,-0.70695,-0.59595,1781189439780
2079968214,3,9.35595,-0.693,-0.58695,1781189439790
2079968224,3,9.397051,-0.69495004,-0.57705003,1781189439802
2079968234,3,9.42105,-0.68295,-0.57495004,1781189439810
2079968244,3,9.423,-0.669,-0.546,1781189439821
2079968255,3,9.411,-0.633,-0.51705,1781189439831
2079968265,3,9.391951,-0.58995,-0.48900002,1781189439841
2079968275,3,9.3490505,-0.55395,-0.48105,1781189439851
2079968285,3,9.315001,-0.55605,-0.44295,1781189439861
2079968295,3,9.295951,-0.55605,-0.42600003,1781189439871
2079968305,3,9.318001,-0.55395,-0.41205,1781189439882
2079968315,3,9.361051,-0.57495004,-0.41700003,1781189439891
2079968325,3,9.418051,-0.57495004,-0.42405003,1781189439901
2079968335,3,9.43305,-0.59205,-0.43800002,1781189439911
2079968345,3,9.46905,-0.60705,-0.441,1781189439922
2079968355,3,9.483001,-0.60195005,-0.44295,1781189439931
2079968365,3,9.46905,-0.59895,-0.453,1781189439941
2079968375,3,9.435,-0.58305,-0.462,1781189439951
2079968385,3,9.363001,-0.53205,-0.44805002,1781189439962
2079968396,3,9.279,-0.49605003,-0.42195,1781189439972
2079968406,3,9.21195,-0.48405004,-0.40500003,1781189439982
2079968416,3,9.141001,-0.48705003,-0.39795002,1781189439992
2079968426,3,9.085951,-0.48000002,-0.402,1781189440002
2079968436,3,9.073951,-0.46800002,-0.42900002,1781189440012
2079968446,3,9.093,-0.51600003,-0.49305,1781189440022
2079968456,3,9.165,-0.55095005,-0.53895,1781189440032
2079968466,3,9.238951,-0.59205,-0.55605,1781189440042
2079968476,3,9.31995,-0.62100005,-0.57705003,1781189440052
2079968486,3,9.418051,-0.62595004,-0.59400004,1781189440062
2079968496,3,9.47295,-0.633,-0.57000005,1781189440073
2079968506,3,9.46395,-0.56805,-0.50805,1781189440083
2079968516,3,9.43995,-0.58500004,-0.51000005,1781189440093
2079968527,3,9.46905,-0.56805,-0.53595,1781189440103
2079968537,3,9.523951,-0.52005005,-0.48900002,1781189440112
2079968547,3,9.519,-0.53505003,-0.47205,1781189440122
2079968557,3,9.507001,-0.52995,-0.453,1781189440133
2079968567,3,9.495001,-0.54705,-0.42900002,1781189440143
2079968577,3,9.448951,-0.54405004,-0.40695003,1781189440153
2079968587,3,9.40905,-0.56295,-0.38295,1781189440163
2079968597,3,9.35805,-0.57495004,-0.38295,1781189440174
2079968607,3,9.363001,-0.57495004,-0.38595003,1781189440183
2079968617,3,9.378,-0.60705,-0.43305,1781189440193
2079968627,3,9.40905,-0.62100005,-0.46695003,1781189440203
2079968637,3,9.415951,-0.62805,-0.51495004,1781189440214
2079968647,3,9.4140005,-0.62100005,-0.57000005,1781189440224
2079968658,3,9.39,-0.60195005,-0.59895,1781189440233
2079968668,3,9.354,-0.57495004,-0.61800003,1781189440244
2079968678,3,9.306001,-0.55605,-0.64905006,1781189440254
2079968688,3,9.259951,-0.56595004,-0.64695,1781189440264
2079968698,3,9.222,-0.55905,-0.63705003,1781189440273
2079968708,3,9.214951,-0.55905,-0.63900006,1781189440284
2079968718,3,9.222,-0.58305,-0.61995006,1781189440296
2079968728,3,9.27,-0.60705,-0.62295,1781189440304
2079968738,3,9.318001,-0.62595004,-0.60795003,1781189440314
2079968748,3,9.387,-0.65895003,-0.642,1781189440324
2079968758,3,9.435,-0.669,-0.64695,1781189440335
2079968768,3,9.47805,-0.669,-0.615,1781189440344
2079968778,3,9.47805,-0.666,-0.61995006,1781189440355
2079968788,3,9.493051,-0.65895003,-0.56805,1781189440365
2079968799,3,9.45405,-0.62100005,-0.54405004,1781189440375
2079968809,3,9.415951,-0.597,-0.50505,1781189440385
2079968819,3,9.391951,-0.57795,-0.48105,1781189440395
2079968829,3,9.39,-0.58995,-0.47400004,1781189440405
2079968839,3,9.387,-0.60195005,-0.47700003,1781189440415
2079968849,3,9.373051,-0.597,-0.51000005,1781189440425
2079968859,3,9.34395,-0.59895,-0.52695,1781189440435
2079968869,3,9.33495,-0.609,-0.55095005,1781189440446
2079968879,3,9.339001,-0.642,-0.582,1781189440455
2079968889,3,9.387,-0.666,-0.63495004,1781189440466
2079968899,3,9.4470005,-0.68100005,-0.651,1781189440475
2079968909,3,9.5140505,-0.717,-0.67800003,1781189440485
2079968919,3,9.519,-0.70695,-0.71400005,1781189440496
2079968930,3,9.48795,-0.67800003,-0.69900006,1781189440505
2079968940,3,9.427951,-0.657,-0.711,1781189440517
2079968950,3,9.36795,-0.64995,-0.70905006,1781189440526
2079968960,3,9.31095,-0.633,-0.68205005,1781189440536
2079968970,3,9.25605,-0.62295,-0.66105,1781189440546
2079968980,3,9.208051,-0.633,-0.61305004,1781189440556
2079968990,3,9.198001,-0.63495004,-0.59205,1781189440567
2079969000,3,9.196051,-0.65205,-0.56805,1781189440576
2079969010,3,9.214951,-0.64995,-0.57195,1781189440586
2079969020,3,9.220051,-0.67395,-0.58395004,1781189440597
2079969030,3,9.214951,-0.669,-0.58905005,1781189440607
2079969040,3,9.22395,-0.67800003,-0.58395004,1781189440618
2079969050,3,9.234,-0.64995,-0.57195,1781189440627
2079969061,3,9.27705,-0.657,-0.57195,1781189440637
2079969071,3,9.315001,-0.66405004,-0.558,1781189440647
2079969081,3,9.361051,-0.64005005,-0.56805,1781189440657
2079969091,3,9.402,-0.66195005,-0.54405004,1781189440667
2079969101,3,9.46605,-0.64695,-0.546,1781189440677
2079969111,3,9.495001,-0.65400004,-0.55095005,1781189440687
2079969121,3,9.519,-0.63795,-0.57495004,1781189440697
2079969131,3,9.48495,-0.63000005,-0.546,1781189440707
2079969141,3,9.46905,-0.61095005,-0.546,1781189440717
2079969151,3,9.4470005,-0.61095005,-0.51705,1781189440727
2079969161,3,9.399,-0.609,-0.51495004,1781189440739
2079969171,3,9.361051,-0.60195005,-0.49605003,1781189440747
2079969181,3,9.339001,-0.61605,-0.49800003,1781189440758
2079969192,3,9.33195,-0.63495004,-0.51495004,1781189440768
2079969202,3,9.31995,-0.64995,-0.49605003,1781189440778
2079969212,3,9.29895,-0.63795,-0.49800003,1781189440788
2079969222,3,9.27495,-0.63795,-0.51000005,1781189440798
2079969232,3,9.21,-0.64995,-0.50505,1781189440808
2079969242,3,9.174001,-0.657,-0.50100005,1781189440818
2079969252,3,9.126,-0.62805,-0.46695003,1781189440828
2079969262,3,9.129001,-0.64695,-0.45705003,1781189440840
2079969272,3,9.15495,-0.64995,-0.47205,1781189440849
2079969282,3,9.196051,-0.65895003,-0.48105,1781189440858
2079969292,3,9.258,-0.693,-0.49800003,1781189440869
2079969302,3,9.32295,-0.726,-0.522,1781189440879
2079969312,3,9.4140005,-0.72405005,-0.52905005,1781189440888
2079969322,3,9.4470005,-0.73605,-0.53400004,1781189440899
2079969333,3,9.52095,-0.71205,-0.51000005,1781189440909
2079969343,3,9.50895,-0.69795,-0.50805,1781189440919
2079969353,3,9.5119505,-0.68100005,-0.47700003,1781189440929
2079969363,3,9.47805,-0.65205,-0.43095002,1781189440939
2079969373,3,9.45705,-0.63795,-0.43095002,1781189440949
2079969383,3,9.430051,-0.62805,-0.40695003,1781189440959
2079969393,3,9.4470005,-0.642,-0.41205,1781189440969
2079969403,3,9.45195,-0.669,-0.402,1781189440979
2079969413,3,9.47805,-0.666,-0.393,1781189440989
2079969423,3,9.48795,-0.657,-0.38595003,1781189440999
2079969433,3,9.47595,-0.65895003,-0.37095,1781189441009
2079969443,3,9.40905,-0.65400004,-0.381,1781189441019
2079969453,3,9.34605,-0.61800003,-0.37800002,1781189441030
2079969464,3,9.31095,-0.59895,-0.39495003,1781189441040
2079969474,3,9.282001,-0.597,-0.43605003,1781189441050
2079969484,3,9.250951,-0.61095005,-0.43305,1781189441060
2079969494,3,9.246,-0.61095005,-0.47400004,1781189441070
2079969504,3,9.229051,-0.61395,-0.46500003,1781189441080
2079969514,3,9.19095,-0.61395,-0.47895002,1781189441090
2079969524,3,9.165,-0.60705,-0.48600003,1781189441101
2079969534,3,9.14295,-0.61095005,-0.50805,1781189441111
2079969544,3,9.165,-0.62805,-0.50805,1781189441120
2079969554,3,9.18105,-0.66195005,-0.53205,1781189441130
2079969564,3,9.19095,-0.67095006,-0.52395004,1781189441140
2079969574,3,9.214951,-0.65205,-0.546,1781189441150
2079969584,3,9.253051,-0.67605,-0.56505,1781189441160
2079969595,3,9.306001,-0.67800003,-0.59895,1781189441171
2079969605,3,9.361051,-0.68595004,-0.60795003,1781189441181
2079969615,3,9.406051,-0.702,-0.615,1781189441191
2079969625,3,9.448951,-0.67395,-0.59895,1781189441201
2079969635,3,9.483001,-0.666,-0.57495004,1781189441211
2079969645,3,9.49695,-0.63495004,-0.558,1781189441221
2079969655,3,9.49695,-0.64500004,-0.52695,1781189441231
2079969665,3,9.50895,-0.64005005,-0.52005005,1781189441240
2079969675,3,9.516001,-0.61800003,-0.54405004,1781189441251
2079969685,3,9.4810505,-0.60405004,-0.51495004,1781189441262
2079969695,3,9.45705,-0.609,-0.52395004,1781189441272
2079969705,3,9.4140005,-0.609,-0.50100005,1781189441281
2079969715,3,9.366,-0.60195005,-0.46695003,1781189441291
2079969725,3,9.36795,-0.59205,-0.45495003,1781189441301
2079969736,3,9.361051,-0.61800003,-0.48900002,1781189441311
2079969746,3,9.36795,-0.633,-0.50805,1781189441321
2079969756,3,9.366,-0.63795,-0.54405004,1781189441332
2079969766,3,9.342,-0.63795,-0.56295,1781189441343
2079969776,3,9.29895,-0.62805,-0.59400004,1781189441352
2079969786,3,9.241051,-0.62595004,-0.59895,1781189441362
2079969796,3,9.21,-0.62295,-0.58005005,1781189441372
2079969806,3,9.186001,-0.62595004,-0.58695,1781189441382
2079969816,3,9.174001,-0.63795,-0.60105,1781189441392
2079969826,3,9.184051,-0.65205,-0.615,1781189441402
2079969836,3,9.229051,-0.68100005,-0.642,1781189441412
2079969846,3,9.28695,-0.70695,-0.65895003,1781189441422
2079969856,3,9.33705,-0.71400005,-0.69195,1781189441432
2079969867,3,9.4140005,-0.73605,-0.702,1781189441442
2079969877,3,9.48795,-0.73800004,-0.69900006,1781189441453
2079969887,3,9.52095,-0.74505,-0.69705003,1781189441463
2079969897,3,9.53295,-0.73095006,-0.666,1781189441474
2079969907,3,9.49695,-0.69795,-0.62700003,1781189441483
2079969917,3,9.460951,-0.67095006,-0.61800003,1781189441493
2079969927,3,9.4470005,-0.64500004,-0.55605,1781189441503
2079969937,3,9.45195,-0.633,-0.54405004,1781189441515
2079969947,3,9.423,-0.62295,-0.50295,1781189441523
2079969957,3,9.36795,-0.61095005,-0.49095002,1781189441533
2079969967,3,9.342,-0.633,-0.462,1781189441544
2079969977,3,9.339001,-0.65205,-0.48600003,1781189441553
2079969987,3,9.375,-0.657,-0.522,1781189441564
2079969998,3,9.418051,-0.68295,-0.56295,1781189441573
2079970008,3,9.46395,-0.70905006,-0.59205,1781189441585
2079970018,3,9.49695,-0.71400005,-0.59595,1781189441594
2079970028,3,9.46605,-0.68805003,-0.58005005,1781189441604
2079970038,3,9.394051,-0.65205,-0.58005005,1781189441616
2079970048,3,9.342,-0.633,-0.55995005,1781189441626
2079970058,3,9.262951,-0.61395,-0.52395004,1781189441634
2079970068,3,9.19305,-0.633,-0.53895,1781189441644
2079970078,3,9.162001,-0.63795,-0.56805,1781189441654
2079970088,3,9.16695,-0.669,-0.56295,1781189441664
2079970098,3,9.16005,-0.68595004,-0.57000005,1781189441675
2079970108,3,9.198001,-0.72900003,-0.56505,1781189441685
2079970118,3,9.24405,-0.73800004,-0.57495004,1781189441694
2079970128,3,9.271951,-0.73095006,-0.57195,1781189441705
2079970139,3,9.315001,-0.74100006,-0.56505,1781189441715
2079970149,3,9.32505,-0.73305005,-0.55095005,1781189441725
2079970159,3,9.35805,-0.71205,-0.53400004,1781189441735
2079970169,3,9.36795,-0.68595004,-0.53400004,1781189441745
2079970179,3,9.36795,-0.657,-0.53400004,1781189441755
2079970189,3,9.354,-0.64500004,-0.51000005,1781189441765
2079970199,3,9.387,-0.64005005,-0.47895002,1781189441775
2079970209,3,9.403951,-0.65205,-0.47700003,1781189441785
2079970219,3,9.4140005,-0.65205,-0.453,1781189441795
2079970229,3,9.415951,-0.65895003,-0.441,1781189441806
2079970239,3,9.44205,-0.68100005,-0.42195,1781189441816
2079970249,3,9.430051,-0.65895003,-0.40995002,1781189441827
2079970259,3,9.424951,-0.63000005,-0.41400003,1781189441837
2079970270,3,9.42105,-0.633,-0.42405003,1781189441846
2079970280,3,9.4470005,-0.64995,-0.41895002,1781189441856
2079970290,3,9.46395,-0.64500004,-0.41700003,1781189441866
2079970300,3,9.460951,-0.63495004,-0.44805002,1781189441876
2079970310,3,9.402,-0.63795,-0.41700003,1781189441887
2079970320,3,9.339001,-0.61095005,-0.39795002,1781189441897
2079970330,3,9.295951,-0.60405004,-0.36405003,1781189441906
2079970340,3,9.226951,-0.609,-0.402,1781189441916
2079970350,3,9.19095,-0.59895,-0.40500003,1781189441926
2079970360,3,9.208051,-0.633,-0.43605003,1781189441936
2079970370,3,9.2029505,-0.65895003,-0.46500003,1781189441946
2079970380,3,9.220051,-0.65895003,-0.49800003,1781189441957
2079970390,3,9.238951,-0.69000006,-0.51000005,1781189441966
2079970401,3,9.28695,-0.69795,-0.53595,1781189441977
2079970411,3,9.31305,-0.70695,-0.546,1781189441986
2079970421,3,9.366,-0.71400005,-0.56295,1781189441997
2079970431,3,9.423,-0.70500004,-0.57000005,1781189442007
2079970441,3,9.42105,-0.66405004,-0.56505,1781189442017
2079970451,3,9.403951,-0.62805,-0.51195,1781189442027
2079970461,3,9.40905,-0.59205,-0.47400004,1781189442037
2079970471,3,9.42105,-0.57495004,-0.44505003,1781189442047
2079970481,3,9.42105,-0.59895,-0.41700003,1781189442057
2079970491,3,9.430051,-0.58500004,-0.40695003,1781189442068
2079970501,3,9.45405,-0.61800003,-0.40500003,1781189442078
2079970511,3,9.43995,-0.633,-0.40695003,1781189442088
2079970521,3,9.4470005,-0.64005005,-0.40995002,1781189442099
2079970531,3,9.43995,-0.65205,-0.43800002,1781189442107
2079970542,3,9.403951,-0.65895003,-0.43800002,1781189442118
2079970552,3,9.378,-0.64995,-0.48405004,1781189442128
2079970562,3,9.373051,-0.64005005,-0.47895002,1781189442138
2079970572,3,9.394051,-0.609,-0.49305,1781189442148
2079970582,3,9.366,-0.64005005,-0.52395004,1781189442158
2079970592,3,9.37005,-0.61395,-0.52395004,1781189442168
2079970602,3,9.30105,-0.59895,-0.51000005,1781189442178
2079970612,3,9.214951,-0.56100005,-0.49605003,1781189442188
2079970622,3,9.153001,-0.56295,-0.49800003,1781189442198
2079970632,3,9.14505,-0.56805,-0.50805,1781189442208
2079970642,3,9.14295,-0.56100005,-0.51705,1781189442219
2079970652,3,9.13095,-0.56805,-0.48405004,1781189442228
2079970662,3,9.17205,-0.59205,-0.49605003,1781189442238
2079970673,3,9.2029505,-0.61095005,-0.52395004,1781189442249
2079970683,3,9.25605,-0.58005005,-0.52695,1781189442258
2079970693,3,9.29895,-0.61395,-0.52005005,1781189442268
2079970703,3,9.363001,-0.60405004,-0.54105,1781189442279
2079970713,3,9.394051,-0.59505004,-0.546,1781189442289
2079970723,3,9.43995,-0.57105005,-0.49800003,1781189442300
2079970733,3,9.46395,-0.55905,-0.49305,1781189442308
2079970743,3,9.448951,-0.55095005,-0.47400004,1781189442319
2079970753,3,9.43305,-0.528,-0.42405003,1781189442330
2079970763,3,9.397051,-0.52305,-0.42195,1781189442339
2079970773,3,9.34395,-0.49905002,-0.41400003,1781189442349
2079970783,3,9.33705,-0.47700003,-0.41400003,1781189442359
2079970793,3,9.342,-0.48900002,-0.43095002,1781189442370
2079970804,3,9.354,-0.504,-0.43095002,1781189442379
2079970814,3,9.330001,-0.51105005,-0.35700002,1781189442390
2079970824,3,9.45705,-0.549,-0.45495003,1781189442400
2079970834,3,9.523951,-0.60195005,-0.49305,1781189442410
2079970844,3,9.559951,-0.59205,-0.50100005,1781189442421
2079970854,3,9.604951,-0.58305,-0.52005005,1781189442430
2079970864,3,9.580951,-0.58500004,-0.50295,1781189442440
2079970874,3,9.44205,-0.56295,-0.49095002,1781189442450
2079970884,3,9.283951,-0.51795,-0.43800002,1781189442460
2079970894,3,9.16005,-0.49605003,-0.40005,1781189442471
2079970904,3,9.097051,-0.53205,-0.38595003,1781189442481
2079970914,3,9.073951,-0.549,-0.37800002,1781189442491
2079970924,3,9.13605,-0.55395,-0.402,1781189442500
2079970934,3,9.21,-0.59205,-0.44295,1781189442512
2079970945,3,9.315001,-0.61395,-0.47205,1781189442521
2079970955,3,9.402,-0.60705,-0.49800003,1781189442531
2079970965,3,9.411,-0.58995,-0.50295,1781189442541
2079970975,3,9.45705,-0.56805,-0.46695003,1781189442551
2079970985,3,9.448951,-0.528,-0.47400004,1781189442561
2079970995,3,9.418051,-0.51105005,-0.462,1781189442573
2079971005,3,9.399,-0.47505003,-0.46905002,1781189442581
2079971015,3,9.36795,-0.45795003,-0.46695003,1781189442592
2079971025,3,9.35595,-0.48705003,-0.44805002,1781189442601
2079971035,3,9.378,-0.50100005,-0.41895002,1781189442613
2079971045,3,9.415951,-0.51600003,-0.41895002,1781189442622
2079971055,3,9.45405,-0.537,-0.381,1781189442632
2079971065,3,9.460951,-0.56100005,-0.37800002,1781189442641
2079971076,3,9.4140005,-0.56805,-0.37095,1781189442652
2079971086,3,9.391951,-0.56595004,-0.38595003,1781189442662
2079971096,3,9.361051,-0.54705,-0.37800002,1781189442673
2079971106,3,9.375,-0.56100005,-0.40995002,1781189442682
2079971116,3,9.424951,-0.57495004,-0.43800002,1781189442692
2079971126,3,9.435,-0.58005005,-0.44295,1781189442702
2079971136,3,9.430051,-0.57495004,-0.44295,1781189442712
2079971146,3,9.399,-0.56595004,-0.44505003,1781189442722
2079971156,3,9.34395,-0.55605,-0.44505003,1781189442732
2079971166,3,9.31095,-0.573,-0.42900002,1781189442742
2079971176,3,9.259951,-0.58305,-0.43605003,1781189442752
2079971186,3,9.217051,-0.60195005,-0.41895002,1781189442762
2079971196,3,9.17595,-0.58695,-0.42405003,1781189442773
2079971207,3,9.18105,-0.61395,-0.46905002,1781189442783
2079971217,3,9.217051,-0.62595004,-0.47895002,1781189442793
2079971227,3,9.258,-0.64005005,-0.51495004,1781189442803
2079971237,3,9.31995,-0.66195005,-0.54795,1781189442813
2079971247,3,9.35805,-0.69495004,-0.558,1781189442824
2079971257,3,9.37005,-0.70695,-0.57495004,1781189442834
2079971267,3,9.43995,-0.71205,-0.58695,1781189442844
2079971277,3,9.483001,-0.71895003,-0.558,1781189442853
2079971287,3,9.5449505,-0.73095006,-0.53895,1781189442864
2079971297,3,9.580951,-0.71895003,-0.47895002,1781189442874
2079971307,3,9.555,-0.69000006,-0.41700003,1781189442884
2079971317,3,9.504001,-0.669,-0.354,1781189442893
2079971327,3,9.46605,-0.62805,-0.273,1781189442904
2079971337,3,9.378,-0.58695,-0.25395,1781189442914
2079971348,3,9.32295,-0.57795,-0.25395,1781189442924
2079971358,3,9.294001,-0.597,-0.26595002,1781189442934
2079971368,3,9.327001,-0.62295,-0.29700002,1781189442944
2079971378,3,9.378,-0.66195005,-0.33495003,1781189442954
2079971388,3,9.44505,-0.666,-0.37605003,1781189442964
2079971398,3,9.5119505,-0.68595004,-0.40695003,1781189442975
2079971408,3,9.579,-0.67800003,-0.42405003,1781189442984
2079971418,3,9.556951,-0.669,-0.40995002,1781189442995
2079971428,3,9.493051,-0.62805,-0.402,1781189443004
2079971438,3,9.35595,-0.57795,-0.39000002,1781189443015
2079971448,3,9.21,-0.537,-0.36405003,1781189443026
2079971458,3,9.085951,-0.51105005,-0.33795002,1781189443034
2079971468,3,9.02805,-0.52305,-0.33105,1781189443044
2079971479,3,9.021001,-0.55095005,-0.36600003,1781189443056
2079971489,3,9.0709505,-0.57105005,-0.36195,1781189443066
2079971499,3,9.153001,-0.61800003,-0.43305,1781189443075
2079971509,3,9.25605,-0.64005005,-0.44505003,1781189443085
2079971519,3,9.330001,-0.669,-0.49305,1781189443095
2079971529,3,9.3820505,-0.67095006,-0.48900002,1781189443106
2079971539,3,9.378,-0.64695,-0.44805002,1781189443115
2079971549,3,9.406051,-0.59505004,-0.40695003,1781189443125
2079971559,3,9.45405,-0.53895,-0.34305,1781189443135
2079971569,3,9.45195,-0.49905002,-0.32595003,1781189443146
2079971579,3,9.424951,-0.43695003,-0.28305,1781189443156
2079971589,3,9.427951,-0.39600003,-0.24405001,1781189443165
2079971599,3,9.402,-0.34995002,-0.22005,1781189443176
2079971610,3,9.36795,-0.36195,-0.22995001,1781189443186
2079971620,3,9.39,-0.35295,-0.24000001,1781189443196
2079971630,3,9.402,-0.34995002,-0.25395,1781189443206
2079971640,3,9.394051,-0.37905002,-0.28500003,1781189443216
2079971650,3,9.406051,-0.384,-0.31605002,1781189443226
2079971660,3,9.378,-0.39105,-0.31905,1781189443236
2079971670,3,9.31995,-0.381,-0.321,1781189443247
2079971680,3,9.27495,-0.36705002,-0.33105,1781189443256
2079971690,3,9.27705,-0.37395,-0.35205,1781189443266
2079971700,3,9.253051,-0.37395,-0.36405003,1781189443276
2079971710,3,9.291,-0.36495003,-0.41700003,1781189443288
2079971720,3,9.33195,-0.35505003,-0.43305,1781189443296
2079971730,3,9.459001,-0.40095,-0.462,1781189443306
2079971741,3,9.46395,-0.42000002,-0.44505003,1781189443317
2079971751,3,9.378,-0.40995002,-0.41895002,1781189443327
2079971761,3,9.294001,-0.37905002,-0.402,1781189443337
2079971771,3,9.265051,-0.35295,-0.381,1781189443347
2079971781,3,9.27,-0.35295,-0.37395,1781189443357
2079971791,3,9.315001,-0.34800002,-0.393,1781189443367
2079971801,3,9.411,-0.34095,-0.40005,1781189443377
2079971811,3,9.526051,-0.37395,-0.38805002,1781189443387
2079971821,3,9.62205,-0.381,-0.41700003,1781189443398
2079971831,3,9.64305,-0.39105,-0.38805002,1781189443407
2079971841,3,9.612,-0.34800002,-0.35895002,1781189443417
2079971851,3,9.5449505,-0.32895002,-0.34500003,1781189443427
2079971861,3,9.47805,-0.30195,-0.33105,1781189443437
2079971871,3,9.394051,-0.30495003,-0.33795002,1781189443448
2079971882,3,9.342,-0.31005,-0.31395,1781189443458
2079971892,3,9.33495,-0.31905,-0.31095,1781189443468
2079971902,3,9.39,-0.36195,-0.35205,1781189443478
2079971912,3,9.435,-0.40995002,-0.37800002,1781189443489
2079971922,3,9.424951,-0.43905002,-0.39000002,1781189443499
2079971932,3,9.411,-0.42000002,-0.40695003,1781189443508
2079971942,3,9.4140005,-0.40095,-0.43305,1781189443520
2079971952,3,9.385051,-0.41295,-0.43800002,1781189443529
2079971962,3,9.387,-0.40500003,-0.45495003,1781189443539
2079971972,3,9.394051,-0.39105,-0.47400004,1781189443548
2079971982,3,9.35595,-0.39600003,-0.47400004,1781189443558
2079971992,3,9.31305,-0.39600003,-0.42600003,1781189443569
2079972002,3,9.279,-0.37695003,-0.402,1781189443579
2079972013,3,9.250951,-0.39105,-0.393,1781189443589
2079972023,3,9.294001,-0.41700003,-0.39795002,1781189443600
2079972033,3,9.318001,-0.45600003,-0.43095002,1781189443609
2079972043,3,9.34605,-0.46305,-0.402,1781189443620
2079972053,3,9.351001,-0.453,-0.441,1781189443630
2079972063,3,9.361051,-0.45105,-0.46905002,1781189443639
2079972073,3,9.363001,-0.44895002,-0.47700003,1781189443649
2079972083,3,9.387,-0.432,-0.48900002,1781189443660
2079972093,3,9.379951,-0.40995002,-0.50295,1781189443669
2079972103,3,9.375,-0.40995002,-0.51495004,1781189443679
2079972113,3,9.35595,-0.393,-0.48105,1781189443690
2079972123,3,9.342,-0.39795002,-0.453,1781189443700
2079972133,3,9.33705,-0.39795002,-0.43305,1781189443710
2079972144,3,9.35805,-0.40995002,-0.41700003,1781189443720
2079972154,3,9.37005,-0.40800002,-0.42900002,1781189443730
2079972164,3,9.402,-0.441,-0.41700003,1781189443740
2079972174,3,9.45705,-0.44895002,-0.44805002,1781189443750
2079972184,3,9.495001,-0.45105,-0.441,1781189443760
2079972194,3,9.531,-0.44400004,-0.43800002,1781189443770
2079972204,3,9.519,-0.44895002,-0.42195,1781189443780
2079972214,3,9.483001,-0.441,-0.41895002,1781189443790
2079972224,3,9.460951,-0.42900002,-0.40695003,1781189443800
2079972234,3,9.394051,-0.40305,-0.39495003,1781189443810
2079972244,3,9.3490505,-0.39105,-0.40500003,1781189443820
2079972254,3,9.28905,-0.40305,-0.39000002,1781189443831
2079972264,3,9.267,-0.40800002,-0.41400003,1781189443841
2079972274,3,9.271951,-0.41295,-0.402,1781189443851
2079972285,3,9.28695,-0.453,-0.43305,1781189443860
2079972295,3,9.29895,-0.46995002,-0.46500003,1781189443871
2079972305,3,9.303,-0.48900002,-0.48105,1781189443881
2079972315,3,9.282001,-0.46995002,-0.47400004,1781189443891
2079972325,3,9.28695,-0.45105,-0.47700003,1781189443901
2079972335,3,9.279,-0.45105,-0.462,1781189443911
2079972345,3,9.31095,-0.432,-0.43605003,1781189443921
2079972355,3,9.342,-0.41700003,-0.43305,1781189443931
2079972365,3,9.39,-0.42195,-0.441,1781189443941
2079972375,3,9.44505,-0.384,-0.43305,1781189443952
2079972385,3,9.48495,-0.36705002,-0.44805002,1781189443961
2079972395,3,9.49995,-0.34995002,-0.43095002,1781189443971
2079972405,3,9.459001,-0.35805002,-0.40995002,1781189443982
2079972416,3,9.424951,-0.372,-0.35205,1781189443992
2079972426,3,9.385051,-0.36495003,-0.33795002,1781189444002
2079972436,3,9.35595,-0.37695003,-0.32295,1781189444012
2079972446,3,9.351001,-0.37695003,-0.333,1781189444022
2079972456,3,9.366,-0.384,-0.33495003,1781189444032
2079972466,3,9.385051,-0.41295,-0.321,1781189444042
2079972476,3,9.435,-0.41505003,-0.36195,1781189444052
2079972486,3,9.4810505,-0.38895002,-0.38295,1781189444063
2079972496,3,9.493051,-0.38895002,-0.42405003,1781189444072
2079972506,3,9.48795,-0.36195,-0.45705003,1781189444083
2079972516,3,9.415951,-0.32595003,-0.45495003,1781189444093
2079972526,3,9.33495,-0.30705002,-0.441,1781189444103
2079972536,3,9.253051,-0.27405003,-0.39795002,1781189444113
2079972547,3,9.196051,-0.27105,-0.37800002,1781189444123
2079972557,3,9.14805,-0.3,-0.38805002,1781189444133
2079972567,3,9.165,-0.3,-0.37605003,1781189444143
2079972577,3,9.184051,-0.31005,-0.40005,1781189444153
2079972587,3,9.247951,-0.34995002,-0.42600003,1781189444164
2079972597,3,9.34395,-0.372,-0.45000002,1781189444173
2079972607,3,9.387,-0.37395,-0.46005002,1781189444183
2079972617,3,9.39,-0.34800002,-0.47205,1781189444193
2079972627,3,9.351001,-0.32595003,-0.453,1781189444203
2079972637,3,9.33195,-0.31905,-0.41400003,1781189444213
2079972647,3,9.31095,-0.30195,-0.39795002,1781189444223
2079972657,3,9.33495,-0.31395,-0.393,1781189444233
2079972667,3,9.363001,-0.28605002,-0.41895002,1781189444243
2079972677,3,9.42105,-0.28095,-0.43605003,1781189444254
2079972688,3,9.448951,-0.32895002,-0.38805002,1781189444263
2079972698,3,9.504001,-0.35295,-0.35205,1781189444274
2079972708,3,9.49695,-0.36,-0.33495003,1781189444284
2079972718,3,9.574051,-0.372,-0.30705002,1781189444297
2079972728,3,9.61905,-0.381,-0.30195,1781189444304
2079972738,3,9.571951,-0.37395,-0.27105,1781189444314
2079972748,3,9.49995,-0.32895002,-0.273,1781189444325
2079972758,3,9.430051,-0.312,-0.28305,1781189444335
2079972768,3,9.375,-0.31395,-0.31395,1781189444345
2079972778,3,9.373051,-0.33600003,-0.33795002,1781189444355
2079972788,3,9.354,-0.32895002,-0.36600003,1781189444364
2079972798,3,9.32295,-0.324,-0.39000002,1781189444374
2079972808,3,9.318001,-0.31395,-0.40500003,1781189444384
2079972819,3,9.30795,-0.31395,-0.40695003,1781189444395
2079972829,3,9.30795,-0.33105,-0.40695003,1781189444405
2079972839,3,9.303,-0.32895002,-0.402,1781189444415
2079972849,3,9.282001,-0.33600003,-0.38595003,1781189444425
2079972859,3,9.267,-0.33600003,-0.39495003,1781189444435
2079972869,3,9.253051,-0.35805002,-0.39000002,1781189444445
2079972879,3,9.265051,-0.36,-0.39495003,1781189444455
2079972889,3,9.318001,-0.36495003,-0.43800002,1781189444465
2079972899,3,9.3820505,-0.34605002,-0.51000005,1781189444475
2079972909,3,9.423,-0.35805002,-0.53205,1781189444485
2079972919,3,9.48795,-0.372,-0.52905005,1781189444496
2079972929,3,9.495001,-0.38895002,-0.51705,1781189444506
2079972939,3,9.460951,-0.37695003,-0.50295,1781189444515
2079972950,3,9.43995,-0.34995002,-0.47205,1781189444525
2079972960,3,9.385051,-0.32895002,-0.44805002,1781189444537
2079972970,3,9.342,-0.31695002,-0.44505003,1781189444546
2079972980,3,9.361051,-0.324,-0.44295,1781189444556
2079972990,3,9.3490505,-0.33105,-0.47205,1781189444567
2079973000,3,9.378,-0.33600003,-0.48405004,1781189444576
2079973010,3,9.411,-0.34605002,-0.49605003,1781189444585
2079973020,3,9.44505,-0.384,-0.51495004,1781189444596
2079973030,3,9.5119505,-0.38595003,-0.56805,1781189444607
2079973040,3,9.540001,-0.39795002,-0.57705003,1781189444617
2079973050,3,9.53295,-0.36705002,-0.55995005,1781189444626
2079973060,3,9.516001,-0.36,-0.53595,1781189444636
2079973070,3,9.45195,-0.35295,-0.51195,1781189444646
2079973080,3,9.415951,-0.35295,-0.51000005,1781189444657
2079973091,3,9.391951,-0.35295,-0.51705,1781189444666
2079973101,3,9.378,-0.372,-0.522,1781189444677
2079973111,3,9.339001,-0.381,-0.52695,1781189444687
2079973121,3,9.291,-0.37905002,-0.50805,1781189444698
2079973131,3,9.265051,-0.393,-0.50505,1781189444708
2079973141,3,9.22395,-0.40305,-0.50805,1781189444717
2079973151,3,9.19305,-0.39795002,-0.52005005,1781189444727
2079973161,3,9.18105,-0.42195,-0.54105,1781189444737
2079973171,3,9.18795,-0.45105,-0.55605,1781189444747
2079973181,3,9.2029505,-0.47505003,-0.57495004,1781189444757
2079973191,3,9.27,-0.48705003,-0.62700003,1781189444767
2079973201,3,9.327001,-0.48900002,-0.62700003,1781189444777
2079973211,3,9.397051,-0.492,-0.62700003,1781189444787
2079973222,3,9.4470005,-0.46500003,-0.63195,1781189444797
2079973232,3,9.49995,-0.45795003,-0.59595,1781189444809
2079973242,3,9.562051,-0.453,-0.57495004,1781189444818
2079973252,3,9.61905,-0.43695003,-0.56505,1781189444828
2079973262,3,9.64605,-0.44595003,-0.57495004,1781189444838
2079973272,3,9.648001,-0.42000002,-0.546,1781189444848
2079973282,3,9.59805,-0.42705002,-0.522,1781189444858
2079973292,3,9.535951,-0.42195,-0.48405004,1781189444868
2079973302,3,9.49695,-0.41700003,-0.453,1781189444878
2079973312,3,9.4810505,-0.44895002,-0.42405003,1781189444888
2079973322,3,9.424951,-0.43695003,-0.393,1781189444899
2079973332,3,9.406051,-0.45105,-0.39495003,1781189444908
2079973342,3,9.37005,-0.45795003,-0.39000002,1781189444918
2079973353,3,9.30795,-0.44895002,-0.39495003,1781189444928
2079973363,3,9.241051,-0.453,-0.40995002,1781189444939
2079973373,3,9.18795,-0.45600003,-0.40995002,1781189444949
2079973383,3,9.162001,-0.45600003,-0.44505003,1781189444959
2079973393,3,9.141001,-0.46005002,-0.47400004,1781189444969
2079973403,3,9.129001,-0.43905002,-0.49305,1781189444979
2079973413,3,9.15495,-0.453,-0.51705,1781189444989
2079973423,3,9.18795,-0.48705003,-0.53595,1781189444999
2079973433,3,9.24405,-0.49905002,-0.54795,1781189445009
2079973443,3,9.29895,-0.49395,-0.54405004,1781189445019
2079973453,3,9.33705,-0.48405004,-0.53595,1781189445029
2079973463,3,9.379951,-0.49905002,-0.52905005,1781189445039
2079973473,3,9.375,-0.48900002,-0.49095002,1781189445051
2079973483,3,9.39,-0.46005002,-0.46695003,1781189445060
2079973494,3,9.39,-0.47700003,-0.47895002,1781189445070
2079973504,3,9.399,-0.46800002,-0.453,1781189445079
2079973514,3,9.403951,-0.48705003,-0.42195,1781189445090
2079973524,3,9.448951,-0.49395,-0.41700003,1781189445100
2079973534,3,9.52095,-0.53505003,-0.41205,1781189445109
2079973544,3,9.571951,-0.55395,-0.42405003,1781189445120
2079973554,3,9.547951,-0.55095005,-0.38295,1781189445131
2079973564,3,9.519,-0.54405004,-0.34305,1781189445140
2079973574,3,9.427951,-0.51105005,-0.29895002,1781189445151
2079973584,3,9.35805,-0.504,-0.29700002,1781189445160
2079973594,3,9.33195,-0.48900002,-0.30900002,1781189445170
2079973604,3,9.32505,-0.50100005,-0.34305,1781189445180
2079973614,3,9.33195,-0.53895,-0.393,1781189445190
2079973625,3,9.34395,-0.54405004,-0.43095002,1781189445201
2079973635,3,9.363001,-0.54405004,-0.453,1781189445211
2079973645,3,9.36795,-0.54405004,-0.47895002,1781189445222
2079973655,3,9.31095,-0.52500004,-0.45705003,1781189445230
2079973665,3,9.259951,-0.52005005,-0.43095002,1781189445241
2079973675,3,9.222,-0.50100005,-0.402,1781189445251
2079973685,3,9.165,-0.51105005,-0.39000002,1781189445262
2079973695,3,9.153001,-0.50595003,-0.38595003,1781189445271
2079973705,3,9.13095,-0.48900002,-0.36195,1781189445281
2079973715,3,9.141001,-0.48195,-0.35895002,1781189445293
2079973725,3,9.19095,-0.513,-0.34695002,1781189445302
2079973735,3,9.259951,-0.513,-0.35700002,1781189445312
2079973745,3,9.34395,-0.54195005,-0.38295,1781189445322
2079973756,3,9.43995,-0.537,-0.38805002,1781189445333
2079973766,3,9.540001,-0.53505003,-0.37605003,1781189445342
2079973776,3,9.61695,-0.51600003,-0.36195,1781189445352
2079973786,3,9.706051,-0.49605003,-0.36900002,1781189445362
2079973796,3,9.79695,-0.48405004,-0.36900002,1781189445372
2079973806,3,9.832951,-0.48000002,-0.36195,1781189445382
2079973816,3,9.7560005,-0.44400004,-0.35700002,1781189445392
2079973826,3,9.66705,-0.42000002,-0.32805002,1781189445402
2079973836,3,9.52095,-0.37695003,-0.29205,1781189445412
2079973846,3,9.423,-0.36,-0.24405001,1781189445423
2079973856,3,9.342,-0.37005,-0.23700002,1781189445432
2079973866,3,9.29895,-0.38595003,-0.252,1781189445442
2079973876,3,9.28695,-0.41505003,-0.22800002,1781189445452
2079973886,3,9.282001,-0.42195,-0.25395,1781189445462
2079973897,3,9.27705,-0.43395,-0.28305,1781189445472
2079973907,3,9.258,-0.432,-0.31095,1781189445482
2079973917,3,9.25605,-0.42000002,-0.35895002,1781189445494
2079973927,3,9.24405,-0.40305,-0.40005,1781189445502
2079973937,3,9.21,-0.41295,-0.42405003,1781189445513
2079973947,3,9.17205,-0.40995002,-0.43305,1781189445522
2079973957,3,9.14805,-0.42000002,-0.441,1781189445534
2079973967,3,9.15705,-0.41505003,-0.44505003,1781189445543
2079973977,3,9.196051,-0.41700003,-0.49800003,1781189445554
2079973987,3,9.22395,-0.441,-0.49605003,1781189445564
2079973997,3,9.282001,-0.47700003,-0.52005005,1781189445574
2079974007,3,9.34395,-0.504,-0.55305004,1781189445584
2079974017,3,9.397051,-0.52005005,-0.57195,1781189445594
2079974028,3,9.397051,-0.53205,-0.58005005,1781189445605
2079974038,3,9.402,-0.51105005,-0.59895,1781189445615
2079974048,3,9.39,-0.48000002,-0.58005005,1781189445624
2079974058,3,9.4140005,-0.46500003,-0.53205,1781189445634
2079974068,3,9.430051,-0.46800002,-0.49095002,1781189445644
2079974078,3,9.394051,-0.43905002,-0.44295,1781189445654
2079974088,3,9.373051,-0.432,-0.40695003,1781189445664
2079974098,3,9.351001,-0.40500003,-0.38595003,1781189445674
2079974108,3,9.34605,-0.40500003,-0.38595003,1781189445685
2079974118,3,9.354,-0.38595003,-0.381,1781189445694
2079974128,3,9.351001,-0.39795002,-0.402,1781189445708
2079974138,3,9.375,-0.39105,-0.41700003,1781189445714
2079974148,3,9.385051,-0.384,-0.44805002,1781189445725
2079974159,3,9.40905,-0.393,-0.46695003,1781189445735
2079974169,3,9.4140005,-0.39795002,-0.47400004,1781189445745
2079974179,3,9.403951,-0.393,-0.49095002,1781189445755
2079974189,3,9.45705,-0.39795002,-0.51495004,1781189445765
2079974199,3,9.436951,-0.37005,-0.54105,1781189445775
2079974209,3,9.378,-0.37005,-0.55305004,1781189445785
2079974219,3,9.34605,-0.36195,-0.54105,1781189445795
2079974229,3,9.31995,-0.34605002,-0.54795,1781189445805
2079974239,3,9.279,-0.36195,-0.54405004,1781189445815
2079974249,3,9.28695,-0.384,-0.53595,1781189445826
2079974259,3,9.291,-0.432,-0.55305004,1781189445837
2079974269,3,9.30795,-0.46305,-0.56295,1781189445846
2079974279,3,9.318001,-0.47700003,-0.58005005,1781189445856
2079974290,3,9.36795,-0.49605003,-0.60795003,1781189445865
2079974300,3,9.42105,-0.49605003,-0.66105,1781189445876
2079974310,3,9.47295,-0.52005005,-0.67800003,1781189445886
2079974320,3,9.504001,-0.53505003,-0.69000006,1781189445896
2079974330,3,9.519,-0.50805,-0.67095006,1781189445906
2079974340,3,9.50895,-0.50595003,-0.63495004,1781189445915
2079974350,3,9.531,-0.49905002,-0.61995006,1781189445927
2079974360,3,9.526051,-0.46005002,-0.60300004,1781189445936
2079974370,3,9.483001,-0.43905002,-0.57495004,1781189445946
2079974380,3,9.436951,-0.43395,-0.54795,1781189445956
2079974390,3,9.402,-0.42195,-0.53595,1781189445967
2079974400,3,9.363001,-0.43905002,-0.53205,1781189445978
2079974410,3,9.327001,-0.43905002,-0.52005005,1781189445987
2079974420,3,9.33495,-0.432,-0.546,1781189445996
2079974431,3,9.32295,-0.46500003,-0.54795,1781189446007
2079974441,3,9.32295,-0.46500003,-0.55095005,1781189446017
2079974451,3,9.31995,-0.46500003,-0.52695,1781189446027
2079974461,3,9.31095,-0.46005002,-0.52905005,1781189446037
2079974471,3,9.262951,-0.45600003,-0.52695,1781189446047
2079974481,3,9.174001,-0.44595003,-0.53895,1781189446057
2079974491,3,9.141001,-0.43695003,-0.54405004,1781189446068
2079974501,3,9.114,-0.44895002,-0.56505,1781189446079
2079974511,3,9.11205,-0.48195,-0.58395004,1781189446087
2079974521,3,9.1050005,-0.48900002,-0.60795003,1781189446097
2079974531,3,9.121051,-0.51795,-0.61995006,1781189446107
2079974541,3,9.16005,-0.51795,-0.60795003,1781189446117
2079974551,3,9.214951,-0.54705,-0.615,1781189446127
2079974562,3,9.31995,-0.56295,-0.60105,1781189446137
2079974572,3,9.40905,-0.58995,-0.61995006,1781189446148
2079974582,3,9.47595,-0.597,-0.59895,1781189446157
2079974592,3,9.495001,-0.60195005,-0.582,1781189446168
2079974602,3,9.5140505,-0.57495004,-0.55095005,1781189446178
2079974612,3,9.46905,-0.53895,-0.48900002,1781189446188
2079974622,3,9.460951,-0.51105005,-0.44295,1781189446198
2079974632,3,9.46395,-0.504,-0.40995002,1781189446208
2079974642,3,9.46605,-0.50100005,-0.354,1781189446218
2079974652,3,9.4810505,-0.47700003,-0.30705002,1781189446228
2079974662,3,9.471001,-0.48195,-0.30900002,1781189446238
2079974672,3,9.436951,-0.47700003,-0.28995,1781189446248
2079974682,3,9.45705,-0.50100005,-0.28305,1781189446259
2079974693,3,9.43305,-0.52005005,-0.29205,1781189446269
2079974703,3,9.430051,-0.52305,-0.32805002,1781189446278
2079974713,3,9.44205,-0.51105005,-0.35205,1781189446288
