icm4n607_acc,iven_sense,2026-06-11_17-04-59.349_Active 10 Pro
imuTimestamp,accuracy(more=better),acc_x[m/s^2],acc_y[m/s^2],acc_z[m/s^2],utcTimestamp(millis)
2077230971,3,-0.82305,2.325,9.733951,1781186702548
2077230981,3,-0.80895007,2.33295,9.71205,1781186702557
2077230991,3,-0.82305,2.35395,9.691051,1781186702567
2077231001,3,-0.80595005,2.3370001,9.657001,1781186702579
2077231011,3,-0.78705,2.3400002,9.63105,1781186702589
2077231021,3,-0.77805007,2.35905,9.583051,1781186702598
2077231031,3,-0.76995003,2.3779502,9.573001,1781186702609
2077231042,3,-0.77505004,2.39205,9.53505,1781186702619
2077231052,3,-0.80595005,2.4019501,9.489,1781186702629
2077231062,3,-0.82995003,2.3760002,9.493951,1781186702639
2077231072,3,-0.84195006,2.3779502,9.430051,1781186702649
2077231082,3,-0.81795,2.3760002,9.448951,1781186702658
2077231092,3,-0.81795,2.38995,9.48495,1781186702668
2077231102,3,-0.78495,2.3779502,9.540001,1781186702678
2077231112,3,-0.768,2.3760002,9.573001,1781186702689
2077231122,3,-0.75600004,2.35905,9.636001,1781186702698
2077231132,3,-0.77805007,2.35395,9.67905,1781186702709
2077231142,3,-0.79905003,2.3490002,9.67905,1781186702719
2077231152,3,-0.81405,2.3370001,9.636001,1781186702728
2077231162,3,-0.804,2.35605,9.612,1781186702739
2077231173,3,-0.82500005,2.3730001,9.56595,1781186702751
2077231183,3,-0.83295006,2.39205,9.54705,1781186702759
2077231193,3,-0.82995003,2.4160502,9.51795,1781186702769
2077231203,3,-0.81105006,2.4090002,9.516001,1781186702780
2077231213,3,-0.79905003,2.4139502,9.52995,1781186702790
2077231223,3,-0.78705,2.4090002,9.552,1781186702800
2077231233,3,-0.79395,2.40405,9.571051,1781186702810
2077231243,3,-0.78195006,2.424,9.585,1781186702820
2077231253,3,-0.78000003,2.4090002,9.573001,1781186702831
2077231263,3,-0.77805007,2.4,9.564,1781186702840
2077231273,3,-0.77505004,2.4,9.54705,1781186702854
2077231283,3,-0.768,2.3830502,9.564,1781186702860
2077231293,3,-0.77295005,2.40405,9.56595,1781186702870
2077231303,3,-0.78705,2.4190502,9.583051,1781186702880
2077231314,3,-0.81600004,2.42805,9.588,1781186702890
2077231324,3,-0.81795,2.4120002,9.607051,1781186702900
2077231334,3,-0.82800007,2.38995,9.613951,1781186702910
2077231344,3,-0.81405,2.364,9.612,1781186702920
2077231354,3,-0.81105006,2.3370001,9.604051,1781186702930
2077231364,3,-0.80595005,2.325,9.609,1781186702940
2077231374,3,-0.82305,2.325,9.56595,1781186702951
2077231384,3,-0.81795,2.3419502,9.556951,1781186702961
2077231394,3,-0.81795,2.3470502,9.52305,1781186702971
2077231404,3,-0.82800007,2.361,9.501,1781186702981
2077231414,3,-0.81795,2.36805,9.493951,1781186702991
2077231424,3,-0.82095003,2.3830502,9.51795,1781186703003
2077231434,3,-0.81405,2.38995,9.53295,1781186703013
2077231445,3,-0.81105006,2.38995,9.58005,1781186703023
2077231455,3,-0.804,2.3830502,9.624001,1781186703032
2077231465,3,-0.80895007,2.3850002,9.616051,1781186703042
2077231475,3,-0.81795,2.421,9.595051,1781186703053
2077231485,3,-0.84195006,2.42595,9.616051,1781186703062
2077231495,3,-0.837,2.42805,9.613951,1781186703073
2077231505,3,-0.82305,2.424,9.624001,1781186703082
2077231515,3,-0.837,2.424,9.633,1781186703092
2077231525,3,-0.83505005,2.4090002,9.645,1781186703103
2077231535,3,-0.82995003,2.4090002,9.609,1781186703113
2077231545,3,-0.80205005,2.4430501,9.552,1781186703122
2077231555,3,-0.79005,2.4400501,9.52305,1781186703132
2077231565,3,-0.79695004,2.4430501,9.48705,1781186703143
2077231576,3,-0.78000003,2.4400501,9.475051,1781186703154
2077231586,3,-0.79005,2.40405,9.525001,1781186703165
2077231596,3,-0.81600004,2.3779502,9.56805,1781186703173
2077231606,3,-0.84705,2.397,9.559051,1781186703183
2077231616,3,-0.85395,2.4070501,9.564,1781186703194
2077231626,3,-0.82995003,2.4090002,9.5779505,1781186703202
2077231636,3,-0.81795,2.4120002,9.604051,1781186703214
2077231646,3,-0.78495,2.40405,9.61905,1781186703223
2077231656,3,-0.78000003,2.40405,9.61905,1781186703234
2077231666,3,-0.79200006,2.4379501,9.625951,1781186703243
2077231676,3,-0.79395,2.433,9.633,1781186703255
2077231686,3,-0.83505005,2.43105,9.628051,1781186703265
2077231696,3,-0.84195006,2.4120002,9.609,1781186703276
2077231706,3,-0.873,2.3730001,9.607051,1781186703284
2077231717,3,-0.88305,2.35395,9.6,1781186703293
2077231727,3,-0.87105006,2.3470502,9.56595,1781186703305
2077231737,3,-0.84900004,2.35905,9.552,1781186703315
2077231747,3,-0.804,2.36805,9.525001,1781186703324
2077231757,3,-0.76995003,2.3760002,9.50895,1781186703335
2077231767,3,-0.78000003,2.39505,9.516001,1781186703345
2077231777,3,-0.78705,2.421,9.492001,1781186703355
2077231787,3,-0.79200006,2.436,9.4800005,1781186703365
2077231797,3,-0.78495,2.43105,9.48705,1781186703375
2077231807,3,-0.78705,2.4469502,9.451051,1781186703385
2077231817,3,-0.78000003,2.4880502,9.451051,1781186703396
2077231827,3,-0.76995003,2.4829502,9.49695,1781186703406
2077231837,3,-0.79395,2.46405,9.54195,1781186703415
2077231848,3,-0.79695004,2.4430501,9.58005,1781186703426
2077231858,3,-0.804,2.4190502,9.585,1781186703436
2077231868,3,-0.82500005,2.39205,9.61905,1781186703446
2077231878,3,-0.87795,2.3470502,9.645,1781186703456
2077231888,3,-0.90195006,2.3470502,9.628051,1781186703466
2077231898,3,-0.91905004,2.32995,9.670951,1781186703476
2077231908,3,-0.91905004,2.3449502,9.691051,1781186703486
2077231918,3,-0.91605,2.32995,9.64995,1781186703497
2077231928,3,-0.91905004,2.3470502,9.637951,1781186703507
2077231938,3,-0.92805004,2.3419502,9.616051,1781186703517
2077231948,3,-0.92805004,2.364,9.583051,1781186703527
2077231958,3,-0.91395,2.38995,9.576,1781186703537
2077231968,3,-0.88305,2.43105,9.571051,1781186703548
2077231979,3,-0.87105006,2.4499502,9.559051,1781186703557
2077231989,3,-0.88305,2.4709501,9.556951,1781186703565
2077231999,3,-0.85905004,2.4450002,9.549001,1781186703576
2077232009,3,-0.84000003,2.469,9.564,1781186703586
2077232019,3,-0.84000003,2.4709501,9.56595,1781186703597
2077232029,3,-0.84000003,2.4859502,9.552,1781186703608
2077232039,3,-0.81105006,2.49105,9.525001,1781186703618
2077232049,3,-0.81795,2.4709501,9.571051,1781186703628
2077232059,3,-0.80895007,2.4709501,9.595051,1781186703638
2077232069,3,-0.82095003,2.4520502,9.63105,1781186703648
2077232079,3,-0.82305,2.42595,9.613951,1781186703658
2077232089,3,-0.84000003,2.4120002,9.604051,1781186703668
2077232099,3,-0.84000003,2.4070501,9.576,1781186703678
2077232110,3,-0.84000003,2.3370001,9.645,1781186703688
2077232120,3,-0.84000003,2.2699502,9.825001,1781186703697
2077232130,3,-0.82305,2.1790502,10.16205,1781186703706
2077232140,3,-0.79005,2.08095,10.48995,1781186703718
2077232150,3,-0.66705,2.0310001,10.62405,1781186703728
2077232160,3,-0.70095,2.01405,10.67205,1781186703739
2077232170,3,-0.66495,1.8060001,10.59105,1781186703748
2077232180,3,-0.93795,2.28495,10.96905,1781186703756
2077232190,3,-1.0030501,2.3830502,11.3209505,1781186703767
2077232200,3,-1.1560501,2.3449502,11.496,1781186703776
2077232210,3,-1.47405,2.6869502,11.39805,1781186703789
2077232220,3,-1.845,3.15105,11.367001,1781186703799
2077232230,3,-1.9560001,3.4990501,11.91195,1781186703808
2077232240,3,-1.9960501,3.9250503,12.07005,1781186703817
2077232251,3,-2.061,4.37505,12.231001,1781186703829
2077232261,3,-2.322,4.602,12.085051,1781186703839
2077232271,3,-2.2429502,4.9399505,12.271951,1781186703849
2077232281,3,-2.559,5.256,12.015,1781186703858
2077232291,3,-2.49405,5.35395,12.03495,1781186703869
2077232301,3,-2.94195,5.5669503,11.314051,1781186703879
2077232311,3,-3.03795,5.63205,10.5720005,1781186703889
2077232321,3,-2.77395,5.8350005,10.399051,1781186703899
2077232331,3,-2.355,6.07905,10.51395,1781186703909
2077232341,3,-2.0389502,6.1780505,10.60305,1781186703918
2077232351,3,-2.1379502,6.2899504,10.167001,1781186703929
2077232361,3,-2.19495,6.2140503,9.49695,1781186703939
2077232371,3,-2.1379502,6.1990504,8.841001,1781186703949
2077232382,3,-2.1040502,6.33795,8.46195,1781186703959
2077232392,3,-1.7590501,6.4099503,8.52705,1781186703969
2077232402,3,-0.31095,6.3960004,8.403001,1781186703979
2077232412,3,0.76995003,6.5460005,7.76805,1781186703989
2077232422,3,1.2559501,6.7330503,6.73395,1781186703998
2077232432,3,1.4170501,6.3739505,5.46495,1781186704008
2077232442,3,1.7740501,5.5260005,4.737,1781186704019
2077232452,3,1.8360001,4.9300504,3.63105,1781186704029
2077232462,3,1.5870001,5.1150002,2.5099502,1781186704040
2077232472,3,1.51995,4.9300504,2.118,1781186704049
2077232482,3,1.6060501,3.147,2.0029502,1781186704059
2077232492,3,1.8690001,3.11805,2.15805,1781186704071
2077232502,3,1.5840001,3.28305,1.8060001,1781186704080
2077232513,3,1.4070001,3.6330001,0.99495006,1781186704089
2077232523,3,1.7230501,3.8029501,0.96900004,1781186704101
2077232533,3,1.8889501,4.854,1.8930001,1781186704111
2077232543,3,2.46795,5.076,1.2610501,1781186704121
2077232553,3,2.86995,5.5480504,0.09195001,1781186704131
2077232563,3,2.8150501,6.453,-1.1209501,1781186704141
2077232573,3,2.4850502,7.01595,-1.746,1781186704151
2077232583,3,2.6809502,6.156,-0.74700004,1781186704161
2077232593,3,4.551,4.353,1.00695,1781186704171
2077232603,3,5.47305,4.755,-0.70605004,1781186704181
2077232613,3,1.3789501,7.66905,-0.16800001,1781186704192
2077232623,3,0.15,9.331051,1.2610501,1781186704201
2077232633,3,1.8430501,8.875951,0.97095007,1781186704210
2077232644,3,2.91105,8.625,-0.49605003,1781186704222
2077232654,3,2.6239502,9.642,-1.76505,1781186704232
2077232664,3,1.434,11.67195,-1.6110001,1781186704241
2077232674,3,0.58605003,13.272,-0.46500003,1781186704251
2077232684,3,0.72300005,13.777051,-0.55305004,1781186704262
2077232694,3,0.282,14.031001,-1.245,1781186704271
2077232704,3,-0.588,14.368051,-1.75995,1781186704282
2077232714,3,-0.39900002,13.873051,-3.7830002,1781186704292
2077232724,3,0.28695002,12.939001,-5.4570003,1781186704302
2077232734,3,0.50505,12.208951,-5.5620003,1781186704312
2077232744,3,0.58395004,11.47605,-5.0470505,1781186704323
2077232754,3,0.38295,11.14095,-4.73595,1781186704334
2077232764,3,-0.25995,11.16705,-4.362,1781186704343
2077232774,3,-0.98805004,11.229,-4.26195,1781186704352
2077232785,3,-1.383,11.316001,-4.42005,1781186704362
2077232795,3,-1.79805,11.383051,-4.5610504,1781186704371
2077232805,3,-2.12295,11.316001,-4.36695,1781186704382
2077232815,3,-2.05095,11.086051,-3.5170503,1781186704392
2077232825,3,-1.95105,10.854,-2.8560002,1781186704403
2077232835,3,-1.6009501,10.66005,-2.39205,1781186704413
2077232845,3,-1.5769501,10.588051,-2.25495,1781186704422
2077232855,3,-1.5169501,10.52595,-2.25795,1781186704432
2077232865,3,-1.5510001,10.485001,-2.22195,1781186704443
2077232875,3,-1.3260001,10.090051,-1.6660501,1781186704453
2077232885,3,-0.47100002,9.229951,0.25695002,1781186704464
2077232895,3,0.28905,8.0119505,0.50895,1781186704474
2077232905,3,0.651,8.00205,0.74295,1781186704483
2077232916,3,1.1730001,7.3170004,1.9759501,1781186704493
2077232926,3,1.2919501,7.1929502,0.46605003,1781186704503
2077232936,3,1.7590501,7.6000504,-0.462,1781186704514
2077232946,3,2.16105,8.158051,-1.41795,1781186704524
2077232956,3,2.2810502,8.59305,-1.6660501,1781186704533
2077232966,3,2.0350502,9.276,-1.7380501,1781186704544
2077232976,3,1.6849501,9.40695,-1.38405,1781186704554
2077232986,3,1.3909501,9.52005,-1.38195,1781186704564
2077232996,3,1.3279501,9.702001,-1.7500501,1781186704574
2077233006,3,1.44105,9.838051,-2.421,1781186704584
2077233016,3,1.6060501,9.762,-3.108,1781186704594
2077233026,3,1.9200001,9.621,-3.38805,1781186704604
2077233036,3,1.8430501,9.616051,-3.21795,1781186704614
2077233047,3,1.9650002,9.71895,-2.77005,1781186704625
2077233057,3,2.121,9.996,-2.1670501,1781186704635
2077233067,3,2.13,10.14,-1.899,1781186704644
2077233077,3,2.0299501,10.18305,-2.16,1781186704655
2077233087,3,2.18505,10.03005,-2.9640002,1781186704665
2077233097,3,2.568,9.68805,-3.4789503,1781186704675
2077233107,3,2.90805,9.29205,-3.7110002,1781186704685
2077233117,3,3.1690502,8.986051,-3.2040002,1781186704694
2077233127,3,3.01095,8.875951,-2.193,1781186704705
2077233137,3,2.7820501,8.80605,-1.09905,1781186704716
2077233147,3,2.41995,8.81805,-0.32295,1781186704726
2077233157,3,2.25495,8.90505,0.31695002,1781186704735
2077233167,3,2.403,8.76105,0.19995001,1781186704746
2077233177,3,2.73105,8.63895,-0.07005,1781186704756
2077233188,3,3.03795,8.581051,0.04695,1781186704766
2077233233,3,2.5420501,8.548051,0.87000006,1781186704809
2077233243,3,2.83695,8.48595,-0.04605,1781186704819
2077233253,3,3.1000502,8.502001,-0.37800002,1781186704829
2077233263,3,3.28395,8.59305,-0.36900002,1781186704839
2077233273,3,3.246,8.833051,0.18795002,1781186704849
2077233283,3,3.1690502,9.024,1.0519501,1781186704861
2077233293,3,3.1690502,9.144,1.12395,1781186704870
2077233303,3,3.3300002,9.217951,1.0830001,1781186704881
2077233314,3,3.4279501,9.321,0.63795,1781186704889
2077233324,3,3.48495,9.319051,-0.061950002,1781186704901
2077233334,3,3.2940001,9.56805,-0.453,1781186704911
2077233344,3,3.2359502,9.735001,-0.04605,1781186704921
2077233354,3,2.9280002,9.838051,0.411,1781186704931
2077233364,3,2.67105,9.7900505,0.68595004,1781186704941
2077233374,3,2.38905,9.778951,0.70305,1781186704951
2077233384,3,2.12805,9.817051,0.42000002,1781186704961
2077233394,3,2.1060002,9.903001,-0.19905001,1781186704970
2077233404,3,2.21895,9.970051,-0.54795,1781186704982
2077233414,3,2.19495,10.03905,-0.67995006,1781186704991
2077233424,3,2.19495,10.008,-0.59895,1781186705002
2077233434,3,2.085,9.939,-0.26295,1781186705011
2077233444,3,1.9909501,9.903001,-0.17505,1781186705022
2077233455,3,1.9630501,9.972,-0.40995002,1781186705032
2077233465,3,1.9150501,9.999001,-0.558,1781186705042
2077233475,3,1.8859501,10.092,-0.87405,1781186705051
2077233485,3,1.9009501,10.095,-1.1329501,1781186705060
2077233495,3,1.9200001,9.972,-0.89295006,1781186705071
2077233505,3,1.8330001,9.70695,-0.37095,1781186705082
2077233515,3,1.6870501,9.345,0.20205002,1781186705091
2077233525,3,1.6009501,8.91705,0.63105005,1781186705101
2077233535,3,1.5370501,8.76105,0.669,1781186705113
2077233545,3,1.74705,8.80605,0.648,1781186705123
2077233555,3,2.08995,8.72295,0.07305,1781186705133
2077233565,3,2.4180002,8.62005,-0.32295,1781186705143
2077233575,3,2.592,8.509951,-0.441,1781186705153
2077233586,3,2.913,8.409,-0.20400001,1781186705163
2077233596,3,3.1260002,8.392051,0.32205,1781186705173
2077233606,3,3.4690502,7.8679504,-2.12595,1781186705183
2077233616,3,3.3040502,8.241,-0.675,1781186705193
2077233626,3,3.76305,8.07405,-0.93900007,1781186705203
2077233636,3,3.86595,8.14605,-0.82095003,1781186705213
2077233646,3,3.75795,8.34195,-0.50505,1781186705222
2077233656,3,3.6550503,8.359051,-0.34995002,1781186705233
2077233666,3,3.48495,8.401951,-0.48600003,1781186705244
2077233676,3,3.2440503,8.65095,-0.19905001,1781186705254
2077233686,3,2.94405,9.019951,0.07095,1781186705262
2077233696,3,2.8920002,9.40995,-0.26805001,1781186705273
2077233706,3,2.8530002,9.63195,-0.69900006,1781186705282
2077233717,3,3.0040503,9.77595,-1.21905,1781186705293
2077233727,3,2.98305,9.74505,-1.4940001,1781186705303
2077233737,3,3.0589502,9.843,-1.4940001,1781186705314
2077233747,3,2.9200501,10.080001,-1.1329501,1781186705324
2077233757,3,2.523,10.68105,-2.08305,1781186705334
2077233767,3,2.38395,11.44995,-2.4469502,1781186705343
2077233777,3,2.50095,11.902051,-1.2709501,1781186705354
2077233787,3,2.4460502,11.574,-0.20805001,1781186705363
2077233797,3,2.4850502,11.071051,0.40095,1781186705375
2077233807,3,2.69805,10.564051,0.64095,1781186705385
2077233817,3,2.9350502,10.08705,0.573,1781186705394
2077233827,3,3.2340002,9.493951,-0.048,1781186705405
2077233837,3,3.2440503,8.811001,0.72195005,1781186705414
2077233848,3,3.3630002,8.43795,0.67395,1781186705425
2077233858,3,3.3349502,8.29395,-0.061950002,1781186705435
2077233868,3,3.45195,8.337001,-0.58005005,1781186705446
2077233878,3,3.5860503,8.265,-1.3429501,1781186705457
2077233888,3,3.73005,8.13795,-2.26305,1781186705465
2077233898,3,3.83505,7.827,-2.97105,1781186705474
2077233908,3,3.7009501,7.4419503,-3.486,1781186705484
2077233918,3,3.5959501,7.0350003,-3.8070002,1781186705495
2077233928,3,3.1600502,6.7159505,-3.8929503,1781186705506
2077233938,3,2.5800002,6.8620505,-4.3240504,1781186705515
2077233948,3,2.499,7.143,-4.85295,1781186705525
2077233958,3,2.1400502,7.0609503,-5.406,1781186705536
2077233968,3,1.74195,7.4130006,-5.7060003,1781186705546
2077233978,3,1.266,7.66905,-5.8780503,1781186705556
2077233989,3,0.77295005,7.9800005,-5.919,1781186705566
2077233999,3,0.62700003,8.42805,-5.8350005,1781186705576
2077234009,3,0.34395,8.586,-4.84095,1781186705587
2077234019,3,0.022950001,8.710951,-3.5410502,1781186705596
2077234029,3,-0.507,9.036,-2.4540002,1781186705606
2077234039,3,-0.74895006,9.3,-1.49205,1781186705617
2077234049,3,-0.924,9.22305,-0.76605004,1781186705627
2077234059,3,-1.02195,9.19005,-0.31905,1781186705637
2077234069,3,-0.95205003,9.09405,-0.010050001,1781186705647
2077234079,3,-0.92805004,8.953051,-0.120000005,1781186705657
2077234089,3,-0.615,8.65995,0.030000001,1781186705667
2077234099,3,-0.54105,8.304001,0.55005,1781186705677
2077234109,3,-0.79695004,8.067,0.72900003,1781186705685
2077234120,3,-1.041,8.047951,0.81495005,1781186705697
2077234130,3,-1.9650002,8.554951,0.98805004,1781186705707
2077234140,3,-1.25205,8.524051,0.19800001,1781186705717
2077234150,3,-0.84000003,8.95005,-1.8030001,1781186705727
2077234160,3,-1.02405,9.496051,-2.301,1781186705736
2077234170,3,-0.91905004,9.972,-1.779,1781186705748
2077234180,3,-0.99300003,10.96395,-0.94305,1781186705758
2077234190,3,-1.25205,11.574,-0.32805002,1781186705766
2077234200,3,-1.62495,11.78205,0.37995002,1781186705776
2077234210,3,-2.97105,12.53205,0.49695003,1781186705788
2077234220,3,-4.0939503,12.903001,0.657,1781186705797
2077234230,3,-4.6200004,12.802051,0.97800004,1781186705808
2077234240,3,-4.932,12.418951,1.39005,1781186705818
2077234251,3,-4.97205,12.201,1.6480501,1781186705826
2077234261,3,-7.1389503,15.352051,2.091,1781186705838
2077234271,3,-9.198001,18.84795,4.21995,1781186705847
2077234281,3,-4.7059503,13.80105,3.114,1781186705858
2077234291,3,-3.10995,10.257001,1.6170001,1781186705866
2077234301,3,-3.45,9.324,-0.67800003,1781186705879
2077234311,3,-2.9610002,8.229,-3.0220501,1781186705889
2077234321,3,-1.3090501,7.2910504,-3.8740501,1781186705898
2077234331,3,-0.80595005,7.25295,-3.5119503,1781186705909
2077234341,3,-1.4170501,8.557051,-1.8559501,1781186705917
2077234351,3,-2.59695,10.810051,0.56205004,1781186705929
2077234361,3,-3.2440503,12.73305,2.163,1781186705939
2077234371,3,-2.6190002,12.714001,1.9570501,1781186705947
2077234382,3,-2.2740002,12.1699505,0.13095,1781186705957
2077234392,3,-2.2759502,11.26095,-1.197,1781186705969
2077234402,3,-2.604,11.545051,-2.7220502,1781186705978
2077234412,3,-3.01605,16.834051,-7.25505,1781186705989
2077234422,3,-1.6180501,18.34995,-7.4749503,1781186705998
2077234432,3,-0.98805004,8.811001,0.564,1781186706008
2077234442,3,-2.4100502,8.14605,-0.025950002,1781186706019
2077234452,3,-2.181,7.9399505,-1.0009501,1781186706029
2077234462,3,-1.71405,7.7119503,-1.5280501,1781186706039
2077234472,3,-1.45305,6.9370503,-1.33395,1781186706049
2077234482,3,-1.40505,6.08895,-1.18005,1781186706059
2077234492,3,-0.56205004,4.6600504,-1.2070501,1781186706068
2077234502,3,-0.27195,3.35205,-1.5829501,1781186706078
2077234512,3,-0.57900006,2.352,-1.9080001,1781186706088
2077234523,3,-0.46395,1.60695,-1.60905,1781186706099
2077234533,3,-0.67200005,1.416,-0.85200006,1781186706108
2077234543,3,-1.3590001,1.593,-0.90000004,1781186706118
2077234553,3,-1.7689501,1.9759501,-0.771,1781186706128
2077234563,3,-1.8049501,1.8919501,-0.771,1781186706138
2077234573,3,-2.5180502,7.32705,1.8330001,1781186706150
2077234583,3,-4.9410005,14.68395,3.6000001,1781186706159
2077234593,3,-2.5830002,7.7200503,2.56995,1781186706170
2077234603,3,-1.8190501,3.0360003,-0.12495001,1781186706180
2077234613,3,-52.804054,78.65505,-36.460953,1781186706190
2077234623,3,-8.920051,9.285001,0.23295002,1781186706201
2077234633,3,-4.0620003,-0.81195,0.91800004,1781186706210
2077234643,3,-3.5170503,-1.19595,1.28505,1781186706221
2077234654,3,-3.0210001,-1.7029501,2.63205,1781186706231
2077234664,3,11.82705,14.722951,16.083,1781186706241
2077234674,3,9.847051,15.561001,-1.69305,1781186706251
2077234684,3,4.5529504,-1.215,0.44205,1781186706261
2077234694,3,7.0650005,-3.9060001,1.1770501,1781186706271
2077234704,3,7.3110003,-3.9970503,1.43295,1781186706281
2077234714,3,7.6320004,-2.8500001,1.31295,1781186706291
2077234724,3,6.6120005,0.20205002,1.6129501,1781186706301
2077234734,3,5.43195,2.16,0.41505003,1781186706311
2077234744,3,6.576,9.501,-0.003,1781186706321
2077234754,3,11.47305,22.71705,0.90405005,1781186706332
2077234764,3,9.92595,21.213001,-1.67805,1781186706340
2077234774,3,2.5450501,6.67995,-8.73705,1781186706352
2077234785,3,0.025950002,1.7680501,-4.7839503,1781186706362
2077234795,3,-0.57900006,0.79995006,-1.1539501,1781186706372
2077234805,3,-0.58095,1.38195,-2.31795,1781186706381
2077234815,3,0.45705003,8.634001,-0.65400004,1781186706391
2077234825,3,-2.52495,38.78205,-0.058050003,1781186706402
2077234835,3,-7.4410505,25.78095,-2.8590002,1781186706412
2077234845,3,-2.72895,5.1000004,-1.69305,1781186706422
2077234855,3,-2.049,1.9590001,-2.8920002,1781186706433
2077234865,3,-2.6430001,3.3000002,-2.9620502,1781186706442
2077234875,3,-4.08405,7.80105,-4.82205,1781186706453
2077234885,3,-5.92995,12.88605,-4.93695,1781186706462
2077234895,3,-6.45195,14.37495,-5.1670504,1781186706473
2077234905,3,-4.8960004,10.22595,-3.2899501,1781186706482
2077234915,3,-3.6150002,7.8750005,0.16395001,1781186706493
2077234926,3,-0.933,12.076951,0.89400005,1781186706502
2077234936,3,1.7230501,11.09805,-3.92895,1781186706512
2077234946,3,2.1060002,7.3720503,-5.6740503,1781186706523
2077234956,3,1.9099501,7.011,-5.0470505,1781186706533
2077234966,3,1.66305,8.380051,-4.722,1781186706543
2077234976,3,1.2730501,9.280951,-4.91505,1781186706553
2077234986,3,0.66,9.154051,-4.722,1781186706563
2077234996,3,-0.00405,8.845051,-4.5420003,1781186706574
2077235006,3,-0.39195,9.010051,-4.722,1781186706583
2077235016,3,-0.58095,9.658951,-4.8960004,1781186706593
2077235026,3,-0.83505005,10.104,-5.2770004,1781186706603
2077235036,3,-1.02705,9.762,-5.1070504,1781186706613
2077235046,3,-0.81600004,9.24495,-4.96995,1781186706624
2077235057,3,-0.32700002,9.184951,-4.77705,1781186706634
2077235067,3,-0.021000002,9.349951,-4.341,1781186706645
2077235077,3,-0.06705,9.369,-4.032,1781186706654
2077235087,3,-0.08295,9.28995,-4.0219502,1781186706664
2077235097,3,0.15,9.216001,-4.2400503,1781186706674
2077235107,3,0.28695002,9.087001,-4.0150504,1781186706684
2077235117,3,0.24105,8.983951,-3.73005,1781186706693
2077235127,3,0.117000006,9.09405,-3.7930503,1781186706703
2077235137,3,-0.033,9.312,-3.96705,1781186706714
2077235147,3,-0.26805001,9.37605,-3.89595,1781186706724
2077235157,3,-0.66495,9.427051,-3.4980001,1781186706733
2077235167,3,-0.96195006,9.64395,-3.38295,1781186706743
2077235177,3,-0.78495,9.691951,-3.3589501,1781186706754
2077235188,3,-0.24405001,9.352051,-3.0960002,1781186706763
2077235198,3,0.16695,9.156,-2.5500002,1781186706773
2077235208,3,0.29205,9.26895,-2.421,1781186706783
2077235218,3,0.07095,9.316051,-2.87295,1781186706794
2077235228,3,-0.165,9.349951,-2.5759501,1781186706805
2077235238,3,-0.59295005,9.549001,-3.3259501,1781186706814
2077235248,3,-0.45195,9.132,-3.5170503,1781186706824
2077235258,3,-0.08805001,9.25905,-3.3640501,1781186706835
2077235268,3,-0.25800002,9.678,-3.4770002,1781186706845
2077235278,3,-0.44700003,9.58005,-3.9409502,1781186706854
2077235288,3,-0.59595,9.609,-4.81995,1781186706865
2077235298,3,-0.84900004,9.38595,-4.20405,1781186706874
2077235308,3,-0.30600002,9.12495,-4.42695,1781186706884
2077235319,3,0.32295,9.11295,-3.9600003,1781186706894
2077235329,3,0.61200005,9.154051,-3.79695,1781186706905
2077235339,3,0.51900005,9.027,-3.9430501,1781186706914
2077235349,3,0.21000001,8.895,-4.06995,1781186706924
2077235359,3,0.0019500001,9.003,-4.12095,1781186706934
2077235369,3,-0.040050004,9.249001,-4.08705,1781186706944
2077235379,3,-0.15300001,9.37605,-3.9049501,1781186706955
2077235389,3,-0.25800002,9.229951,-3.795,1781186706966
2077235399,3,-0.17895001,9.148951,-3.6390002,1781186706976
2077235409,3,-0.24105,9.441,-3.72795,1781186706985
2077235419,3,-0.32295,9.4480505,-3.5820003,1781186706995
2077235429,3,-0.45000002,9.309,-3.4650002,1781186707007
2077235439,3,-0.39195,9.216001,-3.2920501,1781186707015
2077235449,3,-0.44700003,9.24495,-3.0360003,1781186707028
2077235460,3,-0.282,9.25395,-3.18405,1781186707037
2077235470,3,-0.15495001,9.360001,-4.09695,1781186707047
2077235480,3,-0.20805001,9.280951,-4.4869504,1781186707056
2077235490,3,-0.21000001,9.03195,-4.176,1781186707067
2077235500,3,-0.141,9.03405,-4.18305,1781186707076
2077235510,3,-0.033,9.192,-4.2400503,1781186707086
2077235520,3,0.081,9.03405,-4.1730003,1781186707096
2077235530,3,0.093,8.979,-4.36695,1781186707107
2077235540,3,-0.15,9.172951,-4.1950502,1781186707118
2077235550,3,-0.37095,9.295051,-4.3770003,1781186707128
2077235560,3,-0.58095,9.3810005,-4.6980004,1781186707138
2077235570,3,-0.75795,9.337951,-5.22195,1781186707146
2077235580,3,-0.55695003,9.09405,-4.9009504,1781186707156
2077235591,3,-0.13095,9.019951,-4.7719502,1781186707166
2077235601,3,0.23400001,9.151051,-4.58505,1781186707178
2077235611,3,0.38505003,8.92605,-4.25505,1781186707186
2077235621,3,0.27705002,8.838,-4.2330003,1781186707198
2077235631,3,-0.01905,9.14595,-3.9580503,1781186707209
2077235641,3,-0.19305001,9.21105,-3.9460502,1781186707219
2077235651,3,-0.23205002,8.983951,-4.00605,1781186707229
2077235661,3,-0.27195,9.142051,-4.11105,1781186707239
2077235671,3,-0.30600002,9.321,-4.23495,1781186707249
2077235681,3,-0.22695,9.168,-4.2379503,1781186707259
2077235691,3,-0.186,9.075001,-4.1329503,1781186707269
2077235701,3,-0.165,9.1390505,-4.14195,1781186707277
2077235711,3,-0.162,9.1699505,-4.2259502,1781186707289
2077235722,3,-0.15795001,9.156,-4.4170504,1781186707297
2077235732,3,-0.08595,9.084001,-4.7980504,1781186707308
2077235742,3,0.069000006,8.953051,-5.6719503,1781186707318
2077235752,3,0.112050004,8.91405,-5.9350505,1781186707329
2077235762,3,0.13800001,8.93805,-6.393,1781186707338
2077235772,3,-0.031050002,8.9740505,-5.8180504,1781186707348
2077235782,3,-0.033,8.955001,-5.75295,1781186707359
2077235792,3,-0.22200002,9.154051,-5.433,1781186707368
2077235802,3,-0.38295,9.252001,-5.4300003,1781186707379
2077235812,3,-0.49500003,9.321,-5.1070504,1781186707388
2077235822,3,-0.68205005,9.51,-4.755,1781186707399
2077235832,3,-0.70305,9.670951,-4.14405,1781186707409
2077235842,3,-0.591,9.010051,-4.6470003,1781186707419
2077235853,3,-0.44205,9.25905,-3.49305,1781186707431
2077235863,3,-0.52605003,9.90495,-2.4420002,1781186707440
2077235873,3,-0.42795002,9.691951,-1.554,1781186707450
2077235883,3,-0.66705,9.465,-0.48600003,1781186707460
2077235893,3,-0.648,9.655951,-1.401,1781186707469
2077235903,3,-0.648,9.891001,-0.97695005,1781186707480
2077235913,3,-0.69405,9.798,0.33405003,1781186707490
2077235923,3,-0.52905005,9.783,0.54705,1781186707499
2077235933,3,-0.51900005,9.931951,0.13800001,1781186707511
2077235943,3,-0.363,9.819,0.079950005,1781186707520
2077235953,3,-0.105000004,9.72105,0.08505,1781186707531
2077235963,3,0.19095,9.498,-0.34995002,1781186707541
2077235973,3,0.423,9.3,-0.83805007,1781186707551
2077235983,3,0.47100002,9.283051,-0.57000005,1781186707559
2077235994,3,0.30600002,9.4480505,-0.23700002,1781186707570
2077236004,3,-0.061950002,9.679951,-0.91695005,1781186707581
2077236014,3,-0.45900002,9.798,-1.8580501,1781186707591
2077236024,3,-0.57900006,9.838051,-2.36595,1781186707601
2077236034,3,-0.33705002,9.65205,-2.8560002,1781186707611
2077236044,3,-0.20805001,9.558001,-3.3949502,1781186707622
2077236054,3,0.45000002,9.003,-3.11295,1781186707631
2077236064,3,0.87105006,8.799001,-3.048,1781186707641
2077236074,3,0.94500005,8.8279505,-3.6870003,1781186707651
2077236084,3,0.27705002,9.316051,-5.0659504,1781186707662
2077236094,3,-0.52095,9.609,-5.2579503,1781186707671
2077236104,3,-0.51705,9.336,-5.1450005,1781186707681
2077236114,3,-0.08295,9.19005,-4.7239504,1781186707692
2077236125,3,-0.105000004,9.508051,-5.23605,1781186707702
2077236135,3,-0.47100002,9.573001,-4.6090503,1781186707712
2077236145,3,-0.67005,9.52995,-4.3429503,1781186707721
2077236155,3,-0.54495,9.606001,-3.6030002,1781186707732
2077236165,3,-0.46395,9.526951,-3.1009502,1781186707742
2077236175,3,-0.67200005,9.65205,-2.8210502,1781186707752
2077236185,3,-0.804,9.634951,-2.5450501,1781186707762
2077236195,3,-0.735,9.46695,-2.4019501,1781186707772
2077236205,3,-0.57405,9.498,-2.49,1781186707782
2077236215,3,-0.555,9.56805,-2.89995,1781186707792
2077236225,3,-0.38505003,9.336,-3.2280002,1781186707802
2077236235,3,-0.11400001,9.276,-3.3589501,1781186707812
2077236245,3,-0.08295,9.288,-4.197,1781186707822
2077236256,3,-0.23400001,9.151051,-4.899,1781186707834
2077236266,3,-0.28395,9.199051,-5.2530003,1781186707842
2077236276,3,0.049950004,9.06495,-5.052,1781186707853
2077236286,3,0.36600003,8.93805,-4.69005,1781186707863
2077236296,3,0.12195001,9.087001,-5.11695,1781186707873
2077236306,3,-0.39195,9.25395,-5.23605,1781186707883
2077236316,3,-0.47805002,9.22095,-5.124,1781186707893
2077236326,3,-0.21495001,9.108001,-4.5040503,1781186707903
2077236336,3,0.21300001,9.184951,-4.056,1781186707913
2077236346,3,0.22005,9.192,-3.80205,1781186707923
2077236356,3,-0.165,9.225,-3.8479502,1781186707934
2077236366,3,-0.64605004,9.441,-3.8910003,1781186707943
2077236376,3,-0.79005,9.393001,-3.99795,1781186707954
2077236387,3,-0.33705002,9.25395,-3.9529502,1781186707964
2077236397,3,0.045,9.19005,-4.03695,1781186707974
2077236407,3,0.094950005,9.249001,-4.7190003,1781186707984
2077236417,3,-0.00705,9.019951,-4.6069503,1781186707994
2077236427,3,0.13395001,8.95695,-4.65705,1781186708004
2077236437,3,0.034950003,9.316051,-4.7140503,1781186708014
2077236447,3,-0.08295,9.28995,-4.5040503,1781186708024
2077236457,3,-0.27705002,9.324,-5.241,1781186708034
2077236467,3,-0.55305004,9.280951,-5.4490504,1781186708044
2077236477,3,-0.43995002,9.29205,-5.98995,1781186708054
2077236487,3,-0.45405003,9.37605,-6.2080503,1781186708063
2077236497,3,-0.19305001,9.5460005,-5.01405,1781186708075
2077236507,3,-0.016050002,9.040951,-4.09695,1781186708083
2077236517,3,-0.27195,9.352051,-0.77295005,1781186708095
2077236528,3,-0.0019500001,9.45495,-2.4760501,1781186708105
2077236538,3,-0.00705,9.193951,-3.85995,1781186708113
2077236548,3,-0.064050004,9.465,-3.6079502,1781186708125
2077236558,3,-0.034950003,9.55095,-4.48005,1781186708135
2077236568,3,-0.057000004,9.1369505,-3.5269501,1781186708145
2077236578,3,-0.17895001,9.0720005,-2.9550002,1781186708155
2077236588,3,-0.27,9.54405,-3.153,1781186708165
2077236598,3,-0.38505003,9.640051,-3.41895,1781186708175
2077236608,3,-0.48105,9.453,-3.2590501,1781186708185
2077236618,3,-0.67905,9.23295,-2.9950502,1781186708195
2077236628,3,-0.91905004,9.783,-2.7919502,1781186708206
2077236638,3,-1.065,10.494,-2.32695,1781186708216
2077236648,3,-0.80595005,9.73095,-2.0040002,1781186708226
2077236659,3,-0.57195,8.976001,-1.437,1781186708236
2077236669,3,-0.55305004,9.86205,-1.3240501,1781186708246
2077236679,3,-0.43500003,10.71,-1.64295,1781186708256
2077236689,3,-0.11400001,10.01595,-1.45095,1781186708266
2077236699,3,-0.08295,9.54405,-0.91695005,1781186708276
2077236709,3,-0.39900002,9.838051,-0.78795004,1781186708286
2077236719,3,-0.48600003,10.153951,-0.48600003,1781186708295
2077236729,3,-0.46395,10.032001,-0.35700002,1781186708305
2077236739,3,-0.31800002,9.393001,-0.70605004,1781186708316
2077236749,3,-0.22695,10.083,-0.41895002,1781186708327
2077236759,3,-0.049950004,10.34595,-0.16995001,1781186708337
2077236769,3,0.186,10.18305,-0.36900002,1781186708347
2077236779,3,0.28005,9.778951,-0.72795004,1781186708357
2077236790,3,0.19605,9.72105,-0.75705004,1781186708367
2077236800,3,-0.11895001,9.8550005,-0.15105,1781186708376
2077236810,3,-0.507,10.03905,0.0010500001,1781186708388
2077236820,3,-0.9979501,10.344001,-0.141,1781186708398
2077236830,3,-1.3069501,10.255051,-0.48600003,1781186708408
2077236840,3,-1.2780001,10.0990505,-0.73800004,1781186708418
2077236850,3,-0.80595005,9.673051,0.47100002,1781186708427
2077236860,3,-0.22905001,9.56295,0.66,1781186708438
2077236870,3,0.24900001,10.39095,-0.19605,1781186708448
2077236880,3,0.507,10.273951,-0.68505,1781186708456
2077236890,3,0.78000003,9.72795,-0.79995006,1781186708467
2077236900,3,0.864,9.5460005,-0.72105,1781186708478
2077236910,3,0.59805006,9.811951,-0.80700004,1781186708488
2077236920,3,0.24900001,9.8890505,-0.90795004,1781186708497
2077236931,3,-0.016050002,9.82905,-0.78105,1781186708506
2077236941,3,-0.45405003,10.272,-0.35700002,1781186708518
2077236951,3,-0.74595004,10.86795,-0.18,1781186708528
2077236961,3,-1.0170001,10.482,-0.072000004,1781186708539
2077236971,3,-1.1700001,9.94095,0.13995,1781186708549
2077236981,3,-1.18005,9.925051,0.54,1781186708559
2077236991,3,-0.97905004,10.252951,1.1770501,1781186708567
2077237001,3,-0.61200005,10.34595,1.6819501,1781186708579
2077237011,3,-0.11400001,10.047001,1.7850001,1781186708589
2077237021,3,0.22005,9.622951,1.67505,1781186708598
2077237031,3,0.52605003,9.534,1.51005,1781186708608
2077237041,3,0.768,9.691951,1.28505,1781186708619
2077237051,3,0.984,9.74295,0.94695,1781186708627
2077237062,3,1.08405,9.451051,0.573,1781186708638
2077237072,3,1.09605,9.36705,0.26895002,1781186708648
2077237082,3,1.09395,9.4480505,0.21000001,1781186708658
2077237092,3,0.81600004,9.59895,0.135,1781186708668
2077237102,3,0.588,9.826051,0.06105,1781186708678
2077237112,3,0.462,9.807,0.018000001,1781186708689
2077237122,3,0.246,9.661051,0.162,1781186708698
2077237132,3,0.058950003,9.823951,0.16605,1781186708708
2077237142,3,-0.093,9.958051,-0.079050004,1781186708720
2077237152,3,0.38505003,7.9519506,0.25995,1781186708729
2077237162,3,1.5799501,8.245951,0.31305,1781186708739
2077237172,3,2.3149502,11.43795,-1.37205,1781186708750
2077237182,3,1.45305,11.457001,-2.25105,1781186708760
2077237193,3,-0.483,9.826051,-1.07295,1781186708770
2077237203,3,-2.025,10.48005,-0.63195,1781186708779
2077237213,3,-3.3420002,12.1060505,-1.056,1781186708790
2077237223,3,-3.897,11.866051,-0.99105006,1781186708800
2077237233,3,-3.6030002,10.04205,-0.85695004,1781186708810
2077237243,3,-3.28395,9.714001,-1.422,1781186708819
2077237253,3,-2.1760502,11.203051,-1.9270501,1781186708829
2077237263,3,-0.35895002,11.34405,-1.6860001,1781186708841
2077237273,3,0.53595,9.72795,-1.14705,1781186708851
2077237283,3,1.21095,9.29205,-0.75900006,1781186708860
2077237293,3,1.4500501,9.307051,-0.73800004,1781186708870
2077237303,3,1.33095,9.123,-0.88395005,1781186708881
2077237313,3,1.21605,9.09105,-1.116,1781186708891
2077237324,3,0.85395,9.123,-1.2930001,1781186708901
2077237334,3,0.61005,9.5460005,-1.48905,1781186708911
2077237344,3,0.30105,9.8890505,-1.3050001,1781186708919
2077237354,3,-0.27705002,10.011001,-1.4610001,1781186708930
2077237364,3,-0.76305,10.05105,-2.1330001,1781186708941
2077237374,3,-1.23,10.297951,-2.66505,1781186708951
2077237384,3,-1.44105,10.438951,-3.627,1781186708961
2077237394,3,-1.2559501,10.291051,-3.8550003,1781186708971
2077237404,3,-0.411,9.846001,-3.7420502,1781186708980
2077237414,3,0.52395004,9.44295,-3.0529501,1781186708991
2077237424,3,0.65595,9.43095,-2.4400501,1781186709002
2077237434,3,0.363,9.799951,-2.62905,1781186709011
2077237444,3,0.31800002,9.799951,-3.2059503,1781186709022
2077237454,3,0.028050002,9.843,-3.42405,1781186709032
2077237465,3,0.033,9.38595,-3.4309502,1781186709042
2077237475,3,-0.23400001,9.70695,-3.2250001,1781186709052
2077237485,3,-0.53805,10.209001,-2.83695,1781186709062
2077237495,3,-0.73695004,10.128,-2.88,1781186709072
2077237505,3,-0.84705,10.189951,-2.844,1781186709082
2077237515,3,-0.9480001,10.16895,-2.7559502,1781186709092
2077237525,3,-0.84900004,10.153951,-2.6479502,1781186709102
2077237535,3,-0.65805006,9.99405,-1.8720001,1781186709112
2077237545,3,-0.47805002,9.979951,-1.42005,1781186709120
2077237555,3,-0.29895002,9.901051,-0.82395005,1781186709133
2077237565,3,-0.17895001,9.976951,-0.43605003,1781186709141
2077237575,3,-0.052050002,10.06305,-0.26805001,1781186709153
2077237585,3,0.15495001,9.618,-0.59400004,1781186709163
2077237596,3,0.034950003,9.646951,-0.23205002,1781186709171
2077237606,3,0.124050006,9.88605,0.384,1781186709183
2077237616,3,-0.15795001,9.783,1.6339501,1781186709193
2077237626,3,-0.63900006,9.799951,1.9789501,1781186709202
2077237636,3,-0.72705,10.324051,1.299,1781186709212
2077237646,3,-0.84195006,10.317,1.761,1781186709222
2077237656,3,-0.75405,10.083,2.1390002,1781186709233
2077237666,3,-0.58395004,9.979951,1.50705,1781186709244
2077237676,3,-0.36600003,10.059,1.47105,1781186709253
2077237686,3,-0.022950001,10.071,1.3660501,1781186709265
2077237696,3,0.30405003,9.87195,0.93000007,1781186709272
2077237706,3,0.55305004,9.68505,0.35595003,1781186709283
2077237716,3,0.73200005,9.703951,-0.41400003,1781186709293
2077237727,3,0.54795,9.23505,-1.40295,1781186709303
2077237737,3,0.25095,9.181951,-2.2480502,1781186709314
2077237747,3,-0.25995,9.799951,-3.2659502,1781186709325
2077237757,3,-0.91605,10.272,-3.0529501,1781186709334
2077237767,3,-1.371,9.738001,-3.048,1781186709343
2077237777,3,-1.63995,9.92895,-3.7470002,1781186709353
2077237787,3,-1.4260501,10.26,-3.79695,1781186709363
2077237797,3,-0.91200006,10.071,-3.5719502,1781186709373
2077237807,3,-0.25605002,9.616051,-3.65595,1781186709385
2077237817,3,0.27195,9.20205,-3.486,1781186709394
2077237827,3,0.43800002,9.325951,-2.8540502,1781186709405
2077237837,3,0.43005002,9.52005,-2.4540002,1781186709413
2077237847,3,0.55995005,9.534,-2.49195,1781186709424
2077237858,3,0.48600003,9.229951,-2.5519502,1781186709435
2077237868,3,0.31605002,9.192,-2.5879502,1781186709446
2077237878,3,0.102000006,9.52005,-2.397,1781186709455
2077237888,3,-0.105000004,9.691951,-2.22705,1781186709465
2077237898,3,-0.24795002,9.490951,-2.29095,1781186709477
2077237908,3,-0.39000002,9.489,-2.36595,1781186709485
2077237918,3,-0.52905005,9.702001,-2.26005,1781186709495
2077237928,3,-0.54300004,9.71895,-2.6860502,1781186709506
2077237938,3,-0.555,9.427051,-3.14595,1781186709515
2077237948,3,-0.42105,9.163051,-3.5959501,1781186709525
2077237958,3,-0.342,9.38805,-3.45495,1781186709536
2077237968,3,-0.165,9.58005,-3.6820502,1781186709545
2077237978,3,-0.15,9.27105,-3.9049501,1781186709556
2077237988,3,-0.24405001,9.130051,-4.14405,1781186709566
2077237999,3,-0.10695001,9.216001,-4.5610504,1781186709575
2077238009,3,-0.049950004,9.27795,-4.83405,1781186709588
2077238019,3,-0.19605,9.166051,-4.9030504,1781186709595
2077238029,3,-0.45195,9.225,-4.7860503,1781186709606
2077238039,3,-0.44205,9.382951,-4.8630004,1781186709616
2077238049,3,-0.40695003,9.324,-4.578,1781186709625
2077238059,3,-0.26505002,9.229951,-4.31895,1781186709638
2077238069,3,-0.11400001,9.175051,-4.25505,1781186709648
2077238079,3,-0.126,9.1699505,-4.4749503,1781186709656
2077238089,3,-0.049950004,9.08205,-4.55595,1781186709667
2077238099,3,-0.093,9.036,-4.67595,1781186709676
2077238109,3,-0.11895001,9.06495,-5.085,1781186709686
2077238119,3,-0.22500001,9.048,-5.2189503,1781186709697
2077238130,3,-0.31800002,9.075001,-5.0730004,1781186709707
2077238140,3,-0.177,9.144,-5.01795,1781186709717
2077238150,3,0.097950004,9.03405,-4.5540004,1781186709727
2077238160,3,0.177,8.91195,-4.4770503,1781186709737
2077238170,3,0.18105,8.833051,-4.5040503,1781186709748
2077238180,3,0.13095,8.955001,-4.3099504,1781186709757
2077238190,3,0.045,9.048,-4.15605,1781186709768
2077238200,3,0.031050002,9.019951,-4.1059504,1781186709777
2077238210,3,-0.061950002,9.04605,-4.10895,1781186709798
2077238220,3,-0.25995,9.144,-4.125,1781186709798
2077238230,3,-0.43305,9.216001,-4.056,1781186709810
2077238240,3,-0.43995002,9.24195,-4.0030503,1781186709819
2077238250,3,-0.36105,9.199051,-4.0219502,1781186709827
2077238261,3,-0.26295,9.1060505,-4.00605,1781186709837
2077238271,3,-0.21000001,9.096001,-3.9790502,1781186709846
2077238281,3,-0.21000001,9.108001,-3.9390001,1781186709858
2077238291,3,-0.25800002,9.120001,-3.9100502,1781186709867
2077238301,3,-0.24405001,9.154051,-3.83295,1781186709879
2077238311,3,-0.27705002,9.148951,-3.8719501,1781186709889
2077238321,3,-0.23400001,9.084001,-3.8430002,1781186709899
2077238331,3,-0.17895001,9.016951,-3.9070501,1781186709908
2077238341,3,-0.19800001,9.022051,-3.8839502,1781186709918
2077238351,3,-0.24795002,9.028951,-3.9049501,1781186709929
2077238361,3,-0.177,8.979,-3.7020001,1781186709938
2077238371,3,-0.064050004,8.920951,-3.8719501,1781186709949
2077238381,3,0.10695001,8.78295,-3.9120002,1781186709959
2077238392,3,0.27705002,8.536051,-3.5820003,1781186709971
2077238402,3,0.43995002,8.376,-4.08195,1781186709977
2077238412,3,0.588,8.376,-4.19205,1781186709988
2077238422,3,0.60495,8.842051,-4.2330003,1781186709997
2077238432,3,0.37095,9.24705,-4.3819504,1781186710009
2077238442,3,-0.055050004,8.986051,-4.2790504,1781186710018
2077238452,3,-0.55695003,9.280951,-3.9550502,1781186710029
2077238462,3,-0.63600004,9.537001,-4.458,1781186710038
2077238472,3,-0.507,9.348001,-5.8039503,1781186710050
2077238482,3,-0.39495003,8.58405,-7.3740005,1781186710058
2077238492,3,-0.10005,8.076,-8.392051,1781186710070
2077238502,3,0.52395004,8.328,-13.9150505,1781186710078
2077238512,3,0.63195,8.34195,-11.346001,1781186710090
2077238522,3,1.1220001,11.701051,-12.77805,1781186710098
2077238533,3,0.91905004,20.569052,-10.55895,1781186710108
2077238543,3,-1.4500501,44.731052,-6.33795,1781186710119
2077238553,3,-1.4620501,42.376053,-1.50405,1781186710130
2077238563,3,-0.84495,34.780952,-0.62295,1781186710140
2077238573,3,2.973,22.07805,-12.712951,1781186710150
2077238583,3,3.1930501,17.293951,-7.9609504,1781186710161
2077238593,3,2.4439502,15.649051,-4.4700003,1781186710170
2077238603,3,2.64,13.963951,-4.67805,1781186710181
2077238613,3,2.403,11.842051,-6.71295,1781186710189
2077238623,3,1.6710001,10.927951,-7.8150005,1781186710200
2077238633,3,0.52395004,11.859,-7.9849505,1781186710210
2077238643,3,-0.53595,12.634951,-6.3690004,1781186710220
2077238653,3,-0.96195006,12.357,-4.329,1781186710230
2077238664,3,-0.64605004,12.010051,-4.08195,1781186710239
2077238674,3,-0.17400001,11.14095,-4.0680003,1781186710253
2077238684,3,0.22500001,10.33395,-4.0150504,1781186710261
2077238694,3,0.71295005,9.86505,-4.08195,1781186710270
2077238704,3,1.04295,9.819,-4.188,1781186710280
2077238714,3,1.1080501,9.654,-4.21605,1781186710289
2077238724,3,1.02195,9.313951,-4.1520004,1781186710300
2077238734,3,0.84705,8.802,-3.8500502,1781186710311
2077238744,3,0.77295005,8.095051,-3.2059503,1781186710320
2077238754,3,0.80595005,7.38705,-2.25495,1781186710332
2077238764,3,0.85905004,6.4860005,-2.04495,1781186710342
2077238774,3,0.88095003,5.931,-1.746,1781186710352
2077238784,3,0.95205003,5.98395,-1.6470001,1781186710361
2077238795,3,0.87600005,6.5149503,-1.6620001,1781186710372
2077238805,3,0.57900006,6.7380004,-2.02095,1781186710382
2077238815,3,0.354,6.3090005,-2.45895,1781186710392
2077238825,3,0.34905002,5.9479504,-2.421,1781186710401
2077238835,3,0.29205,5.99805,-2.9260502,1781186710412
2077238845,3,0.26805001,6.0940504,-2.3130002,1781186710422
2077238855,3,0.342,5.8230004,-1.863,1781186710433
2077238865,3,0.45900002,5.26305,-1.9780501,1781186710441
2077238875,3,0.73200005,4.947,-1.9350001,1781186710453
2077238885,3,1.00695,4.9180503,-1.91805,1781186710462
2077238895,3,1.0510501,4.83405,-1.76505,1781186710473
2077238905,3,0.93105006,4.84905,-1.82895,1781186710484
2077238915,3,0.59595,4.9399505,-1.88205,1781186710493
2077238925,3,0.27495003,5.136,-2.02605,1781186710503
2077238936,3,0.109950006,5.15805,-2.39205,1781186710513
2077238946,3,0.03795,5.1769505,-2.607,1781186710523
2077238956,3,0.097950004,5.45895,-2.3490002,1781186710533
2077238966,3,0.16005,5.7730503,-2.53095,1781186710544
2077238976,3,0.18405001,5.622,-2.5240502,1781186710552
2077238986,3,0.24105,5.34,-2.08995,1781186710563
2077238996,3,0.30600002,5.1649504,-1.779,1781186710574
2077239006,3,0.33,4.971,-1.7190001,1781186710583
2077239016,3,0.34395,4.68405,-1.76505,1781186710594
2077239026,3,0.29895002,4.578,-0.78795004,1781186710604
2077239036,3,0.28005,4.353,-0.49605003,1781186710613
2077239046,3,0.294,4.6980004,-0.52395004,1781186710624
2077239056,3,0.62895006,4.92105,-1.26195,1781186710634
2077239067,3,0.33900002,4.4370003,-1.9039501,1781186710644
2077239077,3,0.21300001,4.54005,-1.52295,1781186710654
2077239087,3,0.36600003,4.947,-0.81900007,1781186710664
2077239097,3,0.49500003,5.6940002,-1.26195,1781186710672
2077239107,3,0.30105,6.54405,-2.4180002,1781186710684
2077239117,3,-0.010950001,6.9919505,-2.8900502,1781186710694
2077239127,3,-0.22500001,7.3750505,-2.56395,1781186710704
2077239137,3,-0.29895002,7.5420003,-3.354,1781186710713
2077239147,3,-0.22005,8.08605,-3.8430002,1781186710724
2077239157,3,-0.09,8.466001,-3.7830002,1781186710734
2077239167,3,-0.08295,8.72295,-4.05405,1781186710745
2077239177,3,-0.25605002,9.18,-3.9580503,1781186710754
2077239187,3,-0.52905005,10.18095,-4.10895,1781186710765
2077239198,3,-0.85695004,11.541,-4.96605,1781186710775
2077239208,3,-1.1869501,12.309001,-5.73705,1781186710785
2077239218,3,-1.30005,12.1390505,-6.2250004,1781186710795
2077239228,3,-0.97200006,11.43105,-6.1720505,1781186710804
2077239238,3,-0.59805006,10.983001,-6.04995,1781186710815
2077239248,3,-0.43800002,10.798051,-6.6130505,1781186710824
2077239258,3,-0.49695003,10.597051,-7.3050003,1781186710835
2077239268,3,-0.69405,10.413,-7.293,1781186710845
2077239278,3,-1.1220001,10.26,-7.2109504,1781186710856
2077239288,3,-1.3950001,10.11795,-7.21605,1781186710866
2077239298,3,-1.6609501,9.646951,-6.852,1781186710875
2077239308,3,-1.7520001,8.920951,-6.49305,1781186710886
2077239318,3,-1.6470001,8.578951,-6.84,1781186710896
2077239329,3,-1.51005,8.335051,-7.5799503,1781186710907
2077239339,3,-1.764,8.083051,-8.61705,1781186710916
2077239349,3,-2.23305,7.9729505,-9.675,1781186710926
2077239359,3,-2.7859502,8.067,-9.519,1781186710934
2077239369,3,-3.2770503,8.194051,-9.508051,1781186710946
2077239379,3,-3.663,8.586,-9.093,1781186710956
2077239389,3,-3.9070501,8.62905,-8.466001,1781186710966
2077239399,3,-3.96705,8.80395,-8.406,1781186710976
2077239409,3,-3.801,8.811001,-8.03505,1781186710985
2077239419,3,-3.52905,8.72505,-8.092951,1781186710997
2077239429,3,-3.31995,8.646001,-8.26305,1781186711007
2077239439,3,-3.1360502,8.43105,-8.277,1781186711016
2077239449,3,-2.9539502,8.10705,-8.269951,1781186711025
2077239459,3,-2.8840501,7.69605,-8.229,1781186711036
2077239470,3,-2.87505,7.15005,-8.02995,1781186711046
2077239480,3,-2.9350502,6.6280503,-7.6969504,1781186711056
2077239490,3,-3.0499501,6.08895,-7.37895,1781186711069
2077239500,3,-3.2340002,5.60295,-6.9240003,1781186711076
2077239510,3,-3.423,5.4349504,-6.5869503,1781186711087
2077239520,3,-3.7030501,5.5669503,-6.4810505,1781186711096
2077239530,3,-4.077,5.6250005,-6.43305,1781186711107
2077239540,3,-4.30695,5.47095,-6.0810003,1781186711116
2077239550,3,-4.24695,4.8780003,-5.78205,1781186711126
2077239560,3,-4.3830004,4.3720503,-6.0430503,1781186711138
2077239570,3,-4.54395,4.05405,-6.6010504,1781186711148
2077239580,3,-4.73505,4.26,-7.2670503,1781186711158
2077239590,3,-5.0080504,4.8030005,-7.9249506,1781186711167
2077239601,3,-5.157,5.1550503,-8.47095,1781186711178
2077239611,3,-5.2500005,5.1859503,-8.16705,1781186711188
2077239621,3,-5.16405,4.767,-7.5780005,1781186711198
2077239631,3,-5.01795,4.25295,-7.0609503,1781186711208
2077239641,3,-5.01795,3.7690501,-6.144,1781186711218
2077239651,3,-5.085,3.45795,-6.7900505,1781186711226
2077239661,3,-5.3100004,3.3289502,-7.83405,1781186711239
2077239671,3,-5.6329503,3.38595,-7.4370003,1781186711249
2077239681,3,-5.93205,3.522,-7.0150504,1781186711259
2077239691,3,-6.3370504,4.1620502,-7.9150505,1781186711268
2077239701,3,-6.7990503,4.71705,-8.875051,1781186711277
2077239711,3,-7.4500504,5.6080503,-9.711,1781186711287
2077239721,3,-8.092051,6.405,-10.9459505,1781186711298
2077239732,3,-8.608951,6.57705,-11.337001,1781186711308
2077239742,3,-8.736,6.3480005,-10.839001,1781186711319
2077239752,3,-8.620951,5.80905,-10.338,1781186711328
2077239762,3,-7.9840503,5.019,-9.98595,1781186711339
2077239772,3,-7.2900004,4.755,-10.189951,1781186711349
2077239782,3,-7.0620003,4.425,-9.92205,1781186711358
2077239792,3,-7.01205,4.119,-9.45195,1781186711369
2077239802,3,-6.9019504,3.9180002,-9.238951,1781186711379
2077239812,3,-6.7249503,3.6130502,-8.719951,1781186711389
2077239822,3,-6.45195,3.4410002,-8.169001,1781186711401
2077239832,3,-6.129,3.2730002,-7.79295,1781186711408
2077239842,3,-5.7340503,3.08205,-7.43205,1781186711419
2077239852,3,-5.3100004,2.8159502,-6.9220505,1781186711429
2077239863,3,-4.8240004,2.4709501,-6.41895,1781186711440
2077239873,3,-4.4770503,2.148,-5.84205,1781186711450
2077239883,3,-4.2319503,2.06205,-5.418,1781186711460
2077239893,3,-4.07205,2.0310001,-5.10195,1781186711470
2077239903,3,-4.07205,2.0640001,-5.052,1781186711480
2077239913,3,-4.1080503,2.112,-5.05695,1781186711490
2077239923,3,-4.1460004,2.21295,-5.2050004,1781186711500
2077239933,3,-4.2780004,2.457,-5.4300003,1781186711510
2077239943,3,-4.419,2.63895,-5.6839504,1781186711521
2077239953,3,-4.51305,2.7870002,-5.892,1781186711530
2077239963,3,-4.5870004,2.95005,-6.0340505,1781186711541
2077239973,3,-4.611,3.04605,-6.2419505,1781186711550
2077239983,3,-4.60605,3.1369503,-6.47205,1781186711559
2077239993,3,-4.572,3.2209501,-6.5170503,1781186711571
2077240004,3,-4.596,3.3640501,-6.7060504,1781186711581
2077240014,3,-4.776,3.65895,-7.1470504,1781186711591
2077240024,3,-4.9890003,3.97305,-7.5439506,1781186711601
2077240034,3,-5.0389504,4.04895,-7.73295,1781186711610
2077240044,3,-4.81395,3.89595,-7.7380505,1781186711621
2077240054,3,-4.467,4.071,-7.3980002,1781186711631
2077240064,3,-4.6590004,4.56405,-7.0609503,1781186711641
2077240074,3,-4.87395,5.3590503,-6.1770005,1781186711651
2077240084,3,-5.13705,5.8639503,-5.4570003,1781186711662
2077240094,3,-5.5399504,6.2970004,-5.0209503,1781186711671
2077240104,3,-6.06195,6.9370503,-4.52505,1781186711682
2077240114,3,-6.7099504,7.7430005,-4.0609503,1781186711692
2077240124,3,-7.0459504,8.29395,-3.8050501,1781186711701
2077240135,3,-6.9949503,8.533951,-3.9790502,1781186711712
2077240145,3,-6.5670004,7.8630004,-3.5029502,1781186711720
2077240155,3,-5.8939505,7.2840004,-3.6060002,1781186711732
2077240165,3,-5.3509502,7.2049503,-3.18405,1781186711742
2077240175,3,-4.8499503,7.32,-2.43495,1781186711752
2077240185,3,-4.7710505,7.21395,-2.56695,1781186711762
2077240195,3,-5.5300503,7.1040006,-0.37800002,1781186711772
2077240205,3,-6.2770505,8.29905,-4.3650002,1781186711782
2077240215,3,-6.84495,10.497001,-1.8529501,1781186711792
2077240225,3,-6.8299503,12.288,-2.2390501,1781186711802
2077240235,3,-6.366,13.07295,-2.5159502,1781186711813
2077240245,3,-5.6740503,12.783001,-2.7870002,1781186711823
2077240255,3,-4.4809504,11.349001,-3.6109502,1781186711832
2077240266,3,-3.3270001,10.755,-1.6830001,1781186711843
2077240276,3,-2.0970001,10.240951,0.33900002,1781186711853
2077240286,3,-1.0669501,10.209001,0.97305006,1781186711863
2077240296,3,-1.2040501,11.50695,0.19305001,1781186711873
2077240306,3,-2.2480502,11.3539505,-0.381,1781186711883
2077240316,3,-2.607,10.783951,-0.75705004,1781186711893
2077240326,3,-2.70705,10.209001,-1.09395,1781186711903
2077240336,3,-2.76195,9.538951,-1.41495,1781186711913
2077240346,3,-2.8630502,8.95695,-1.63995,1781186711923
2077240356,3,-2.83395,8.253,-2.1379502,1781186711934
2077240366,3,-2.72895,7.839,-2.45895,1781186711943
2077240376,3,-2.6790001,7.5730505,-2.80605,1781186711952
2077240386,3,-2.523,7.4779506,-2.80905,1781186711964
2077240397,3,-2.226,7.4389505,-2.9329503,1781186711974
2077240407,3,-1.8000001,7.557,-3.0289502,1781186711984
2077240417,3,-1.51995,7.7389503,-3.2730002,1781186711993
2077240427,3,-1.23,7.90605,-3.3300002,1781186712004
2077240437,3,-0.93795,8.313001,-3.0190501,1781186712014
2077240447,3,-0.68205005,8.839951,-2.70105,1781186712024
2077240457,3,-0.39495003,9.35505,-2.53305,1781186712034
2077240467,3,-0.18405001,9.970051,-2.457,1781186712044
2077240477,3,-0.061950002,10.51095,-2.193,1781186712054
2077240487,3,0.11400001,11.304001,-2.32005,1781186712063
2077240497,3,0.25605002,11.919001,-2.3730001,1781186712073
2077240507,3,0.46395,12.30405,-2.2720501,1781186712084
2077240517,3,0.75600004,12.56295,-1.9800001,1781186712094
2077240527,3,1.02195,12.481951,-1.9369501,1781186712103
2077240538,3,1.33305,12.108001,-2.085,1781186712114
2077240548,3,1.455,11.875951,-2.2120502,1781186712126
2077240558,3,1.29495,11.686951,-2.22405,1781186712135
2077240568,3,0.98100007,11.3869505,-2.2030501,1781186712145
2077240578,3,0.62205005,10.85805,-2.6790001,1781186712155
2077240588,3,0.33195,10.389001,-3.01395,1781186712165
2077240598,3,0.13605,9.913051,-3.1030502,1781186712175
2077240608,3,-0.021000002,9.502951,-3.1030502,1781186712186
2077240618,3,-0.20505,9.18,-3.1579502,1781186712195
2077240628,3,-0.354,8.895,-3.213,1781186712206
2077240638,3,-0.37500003,8.78295,-3.4429502,1781186712216
2077240648,3,-0.41400003,8.83005,-3.8119502,1781186712225
2077240658,3,-0.32700002,8.778001,-4.0080004,1781186712235
2077240669,3,-0.112050004,8.64105,-4.1280003,1781186712245
2077240679,3,0.22905001,8.65095,-4.104,1781186712256
2077240689,3,0.22905001,9.604051,-4.72905,1781186712264
2077240699,3,0.30600002,9.8220005,-4.9230003,1781186712276
2077240709,3,0.34905002,10.453951,-5.1670504,1781186712284
2077240719,3,0.081,10.96395,-5.3370004,1781186712296
2077240729,3,-0.109950006,10.915951,-4.8889503,1781186712305
2077240739,3,-0.27495003,10.698001,-4.056,1781186712314
2077240749,3,-0.72,10.588051,-3.354,1781186712324
2077240759,3,-1.2559501,10.815001,-2.8900502,1781186712337
2077240769,3,-1.8100501,11.397,-2.8489501,1781186712347
2077240779,3,-2.3719501,11.847,-3.62295,1781186712357
2077240789,3,-2.72895,11.847,-3.7540503,1781186712366
2077240800,3,-2.9560502,11.458951,-3.7810502,1781186712376
2077240810,3,-2.8819501,10.530001,-3.216,1781186712386
2077240820,3,-2.676,9.8890505,-2.598,1781186712396
2077240830,3,-2.5129502,9.465,-1.88205,1781186712408
2077240840,3,-2.3700001,8.91705,-1.23105,1781186712416
2077240850,3,-2.3790002,8.67195,-0.74505,1781186712428
2077240860,3,-2.4510002,8.59305,-0.18,1781186712438
2077240870,3,-2.53305,8.47605,0.12105001,1781186712448
2077240880,3,-2.6119502,8.27505,0.37005,1781186712457
2077240890,3,-2.6790001,8.064,0.48495004,1781186712467
2077240900,3,-2.73105,8.076,0.31500003,1781186712478
2077240910,3,-2.7859502,8.136001,0.37500003,1781186712487
2077240920,3,-2.8249502,8.23695,0.34395,1781186712498
2077240931,3,-2.8870502,8.347051,0.07095,1781186712507
2077240941,3,-3.05205,8.65995,-0.13905,1781186712518
2077240951,3,-3.2650502,9.063001,-0.354,1781186712526
2077240961,3,-3.3970501,9.561001,-0.92700005,1781186712538
2077240971,3,-3.15,9.987,-1.5990001,1781186712547
2077240981,3,-2.67405,10.090051,-2.08305,1781186712558
2077240991,3,-2.18805,9.85305,-2.42805,1781186712568
2077241001,3,-1.932,9.72795,-2.5069501,1781186712578
2077241011,3,-1.76205,9.654,-2.5450501,1781186712589
2077241021,3,-1.6870501,9.606001,-2.4810002,1781186712599
2077241031,3,-1.6279501,9.522,-2.2480502,1781186712608
2077241041,3,-1.67805,9.12705,-1.9750501,1781186712617
2077241051,3,-1.8330001,8.802,-1.8750001,1781186712627
2077241061,3,-2.0010002,8.79195,-1.7530501,1781186712637
2077241072,3,-2.061,8.814,-1.5010501,1781186712648
2077241082,3,-1.9120501,8.839951,-1.72905,1781186712659
2077241092,3,-1.6900501,9.10095,-2.0400002,1781186712669
2077241102,3,-1.48395,9.63,-2.085,1781186712679
2077241112,3,-1.0000501,9.88395,-2.8129501,1781186712689
2077241122,3,-0.52905005,9.73095,-4.0009503,1781186712698
2077241132,3,-0.49500003,14.514001,-6.3019505,1781186712709
2077241142,3,-0.44205,15.86505,-6.4450502,1781186712719
2077241152,3,0.54495,14.281951,-6.5220003,1781186712729
2077241162,3,2.1780002,12.40305,-6.66795,1781186712739
2077241172,3,3.6700501,11.514001,-6.4759502,1781186712750
2077241182,3,4.6249504,11.055,-5.6910005,1781186712760
2077241192,3,5.058,9.925051,-4.78095,1781186712770
2077241203,3,4.9840503,7.2169504,-3.6349502,1781186712780
2077241213,3,4.3900504,6.05805,-2.8249502,1781186712790
2077241223,3,3.4060502,6.4120502,-1.6660501,1781186712800
2077241233,3,1.9390501,6.4669504,-1.044,1781186712809
2077241243,3,0.88095003,6.4789505,-1.11105,1781186712819
2077241253,3,-0.010950001,6.453,-1.0339501,1781186712829
2077241263,3,-0.77505004,6.28095,-1.10895,1781186712840
2077241273,3,-1.4620501,6.10305,-0.96000004,1781186712850
2077241283,3,-2.01495,6.31395,-1.03695,1781186712860
2077241293,3,-2.74305,7.0300503,-0.52395004,1781186712871
2077241303,3,-3.5520003,8.43795,-0.57000005,1781186712880
2077241313,3,-4.45695,10.321951,-0.81195,1781186712891
2077241323,3,-5.295,11.031,-1.50405,1781186712901
2077241334,3,-5.9560504,11.577001,-2.7529502,1781186712911
2077241344,3,-6.4300504,12.43605,-3.0240002,1781186712919
2077241354,3,-6.5740504,12.558001,-1.9609501,1781186712931
2077241364,3,-6.49695,11.809051,-1.659,1781186712941
2077241374,3,-5.7649503,11.725051,-1.8840001,1781186712951
2077241384,3,-4.6729503,11.251051,-2.3130002,1781186712961
2077241394,3,-3.8880002,10.798051,-3.2629502,1781186712971
2077241404,3,-3.2220001,10.458,-3.486,1781186712981
2077241414,3,-2.6119502,9.94095,-3.3280501,1781186712991
2077241424,3,-2.0029502,9.43395,-3.46005,1781186713001
2077241434,3,-1.45305,9.012,-3.8209503,1781186713012
2077241444,3,-1.0510501,8.85,-4.065,1781186713021
2077241454,3,-0.66300005,8.887951,-4.257,1781186713030
2077241464,3,-0.33495003,9.0390005,-4.4370003,1781186713042
2077241475,3,-0.034950003,9.20895,-4.6639504,1781186713051
2077241485,3,0.26505002,9.45495,-4.84095,1781186713060
2077241495,3,0.49305,9.637051,-4.73595,1781186713071
2077241505,3,0.62700003,9.774,-4.14195,1781186713082
2077241515,3,0.77505004,9.868951,-3.4120502,1781186713091
2077241525,3,0.87795,9.927,-3.0960002,1781186713101
2077241535,3,0.90900004,9.979951,-3.0360003,1781186713113
2077241545,3,0.94005007,10.07505,-3.1939502,1781186713121
2077241555,3,0.71805006,10.128,-3.1320002,1781186713133
2077241565,3,0.36795002,9.783,-3.14895,1781186713142
2077241575,3,0.33495003,9.609,-3.3619502,1781186713151
2077241585,3,-0.33495003,9.597,-2.43495,1781186713163
2077241595,3,-0.95205003,9.802051,-2.29095,1781186713173
2077241606,3,-1.371,9.958051,-2.3419502,1781186713183
2077241616,3,-1.6300501,9.89295,-2.1000001,1781186713193
2077241626,3,-1.8409501,9.372001,-1.7070001,1781186713203
2077241636,3,-2.04705,8.964001,-1.18005,1781186713213
2077241646,3,-2.2069502,9.03195,-1.0200001,1781186713223
2077241656,3,-2.3070002,9.297001,-1.2570001,1781186713232
2077241666,3,-2.50605,9.25695,-1.10595,1781186713243
2077241676,3,-2.7169502,9.538951,-0.93600005,1781186713253
2077241686,3,-2.69805,9.74505,-1.8700501,1781186713263
2077241696,3,-2.5090501,9.903001,-1.9630501,1781186713273
2077241706,3,-2.3070002,10.132951,-2.19105,1781186713283
2077241716,3,-2.08995,10.408051,-2.60505,1781186713293
2077241726,3,-2.05095,10.2619505,-2.0299501,1781186713303
2077241737,3,-2.094,10.375051,-2.04705,1781186713313
2077241747,3,-2.26005,10.257001,-1.554,1781186713323
2077241757,3,-2.49195,10.176001,-1.12995,1781186713332
2077241767,3,-2.5519502,10.03695,-1.281,1781186713344
2077241777,3,-2.53695,9.9199505,-1.54005,1781186713354
2077241787,3,-2.6260502,9.75195,-1.67805,1781186713364
2077241797,3,-2.7960002,9.831,-1.8030001,1781186713375
2077241807,3,-2.8150501,10.092,-2.12595,1781186713384
2077241817,3,-2.5729501,10.48005,-2.7610502,1781186713394
2077241827,3,-2.2690501,11.227051,-4.0030503,1781186713405
2077241837,3,-2.08005,11.577001,-4.4869504,1781186713414
2077241847,3,-1.845,11.050051,-4.03905,1781186713425
2077241857,3,-1.314,10.486951,-3.1390502,1781186713435
2077241868,3,-1.08405,10.5709505,-2.46105,1781186713445
2077241878,3,-1.16805,10.458,-1.9230001,1781186713455
2077241888,3,-1.1389501,10.104,-1.38405,1781186713465
2077241898,3,-1.33305,9.56505,-0.67095006,1781186713475
2077241908,3,-1.5799501,9.07695,-0.35205,1781186713484
2077241918,3,-1.6300501,8.74695,-0.23205002,1781186713495
2077241928,3,-1.5370501,8.217,-0.24000001,1781186713505
2077241938,3,-1.1890501,7.65705,-0.22995001,1781186713514
2077241948,3,-0.84900004,7.4029503,-0.36900002,1781186713525
2077241958,3,-0.47805002,7.1590505,-0.615,1781186713535
2077241968,3,-0.13800001,7.10895,-0.96495,1781186713546
2077241978,3,0.27,7.0969505,-1.36995,1781186713555
2077241988,3,0.84900004,7.25295,-2.16405,1781186713566
2077241998,3,1.4500501,7.4470506,-3.00195,1781186713576
2077242009,3,2.1780002,7.5829506,-3.5410502,1781186713586
2077242019,3,2.7940502,7.7220006,-4.0609503,1781186713596
2077242029,3,3.423,8.016001,-4.18305,1781186713606
2077242039,3,3.9090002,8.466001,-4.3650002,1781186713616
2077242049,3,4.335,8.727,-4.6470003,1781186713626
2077242059,3,4.63695,8.895,-4.518,1781186713636
2077242069,3,4.9290004,9.012,-3.9529502,1781186713646
2077242079,3,4.9339504,9.313951,-3.354,1781186713657
2077242089,3,4.7970004,9.60105,-2.4829502,1781186713667
2077242099,3,4.0669503,9.967951,-2.253,1781186713675
2077242109,3,3.2220001,10.32705,-2.1330001,1781186713687
2077242119,3,2.592,10.26,-1.9609501,1781186713697
2077242129,3,2.08695,9.817051,-1.37205,1781186713707
2077242140,3,1.5079501,9.07005,-0.67995006,1781186713717
2077242150,3,0.91605,8.265,0.41805002,1781186713727
2077242160,3,0.28395,8.47605,1.07895,1781186713738
2077242170,3,-0.27195,9.867001,-0.68505,1781186713748
2077242180,3,-0.72705,10.177951,-2.334,1781186713757
2077242190,3,-0.84495,11.335051,-4.0939503,1781186713768
2077242200,3,-0.711,12.490951,-4.53195,1781186713778
2077242210,3,-0.63600004,13.39605,-5.064,1781186713788
2077242220,3,-0.555,14.191051,-5.385,1781186713798
2077242230,3,-0.64095,14.8279505,-5.3700004,1781186713808
2077242240,3,-0.88305,14.79705,-4.73295,1781186713818
2077242250,3,-1.0390501,13.924951,-3.417,1781186713828
2077242260,3,-1.161,12.76605,-1.5949501,1781186713839
2077242271,3,-1.12995,11.22,-0.522,1781186713847
2077242281,3,-0.84195006,9.880951,0.279,1781186713858
2077242291,3,-0.13395001,8.658,0.71205,1781186713867
2077242301,3,0.282,8.184,0.079950005,1781186713878
2077242311,3,0.70095,8.88105,-0.78300005,1781186713886
2077242321,3,1.00695,9.199051,-2.35395,1781186713899
2077242331,3,1.43595,9.336,-3.6439502,1781186713909
2077242341,3,1.8930001,9.022051,-4.839,1781186713919
2077242351,3,2.3389502,8.814,-5.52405,1781186713929
2077242361,3,2.736,8.65305,-5.8279505,1781186713939
2077242371,3,3.01095,8.586,-5.7990003,1781186713947
2077242381,3,3.21495,8.385,-5.775,1781186713958
2077242391,3,3.3010502,7.97805,-5.61705,1781186713967
2077242402,3,3.1909502,7.6519504,-5.27505,1781186713977
2077242412,3,2.9850001,7.41795,-4.7689505,1781186713989
2077242422,3,2.8579502,7.2649503,-4.18995,1781186713998
2077242432,3,2.8560002,7.35795,-3.6540003,1781186714009
2077242442,3,2.9850001,7.5709505,-3.141,1781186714018
2077242452,3,3.1930501,8.026051,-2.6860502,1781186714029
2077242462,3,3.28905,8.490001,-2.43495,1781186714038
2077242472,3,3.7180502,9.099,-2.32005,1781186714050
2077242482,3,4.03095,9.508051,-2.1790502,1781186714060
2077242492,3,4.137,9.7900505,-2.0740502,1781186714069
2077242502,3,3.8689501,9.85995,-1.7740501,1781186714078
2077242512,3,3.5170503,9.955951,-1.64505,1781186714089
2077242522,3,3.2220001,10.068001,-1.7170501,1781186714100
2077242532,3,3.0210001,9.843,-1.7479501,1781186714110
2077242543,3,2.9280002,9.465,-1.8390001,1781186714120
2077242553,3,2.8270502,9.20205,-1.9710001,1781186714130
2077242563,3,2.7550502,8.710951,-1.9630501,1781186714140
2077242573,3,2.6910002,8.12205,-1.7770501,1781186714149
2077242583,3,2.50395,7.5400505,-1.52295,1781186714160
2077242593,3,2.2690501,7.0660505,-1.2280501,1781186714170
2077242603,3,2.0059502,6.7380004,-0.98205006,1781186714180
2077242613,3,1.7809501,6.405,-0.8880001,1781186714191
2077242623,3,1.67805,6.0390005,-0.915,1781186714200
2077242633,3,1.55595,5.874,-0.97200006,1781186714210
2077242643,3,1.45305,6.2470503,-1.1920501,1781186714220
2077242653,3,1.3450501,6.90495,-1.5660001,1781186714230
2077242663,3,1.3090501,7.5780005,-1.9950001,1781186714239
2077242674,3,1.3260001,8.349,-2.4019501,1781186714251
2077242684,3,1.26405,9.345,-2.8830001,1781186714261
2077242694,3,1.2060001,10.518001,-3.01005,1781186714271
2077242704,3,1.125,11.55,-3.0310502,1781186714280
2077242714,3,1.0309501,12.655951,-2.8950002,1781186714290
2077242724,3,0.85200006,13.791,-2.8129501,1781186714301
2077242734,3,0.58605003,14.896951,-2.6860502,1781186714311
2077242744,3,0.26295,15.679951,-2.7130501,1781186714321
2077242754,3,-0.08805001,16.22595,-2.6430001,1781186714331
2077242764,3,-0.33900002,16.351051,-2.71005,1781186714341
2077242774,3,-0.52605003,15.859951,-3.1390502,1781186714351
2077242784,3,-0.66495,14.928,-3.6030002,1781186714361
2077242794,3,-0.71505004,14.0140505,-3.76605,1781186714372
2077242805,3,-0.68700004,13.201951,-3.7780502,1781186714382
2077242815,3,-0.43800002,12.4459505,-3.5440502,1781186714390
2077242825,3,-0.105000004,11.872951,-3.0310502,1781186714401
2077242835,3,0.13395001,11.422951,-2.19105,1781186714412
2077242845,3,0.24105,10.7029505,-1.1710501,1781186714422
2077242855,3,0.37500003,10.02795,-0.37095,1781186714433
2077242865,3,0.25605002,9.462001,0.59295005,1781186714442
2077242875,3,-0.23205002,9.142051,1.2559501,1781186714452
2077242885,3,-0.033,8.232,1.692,1781186714462
2077242895,3,0.24105,7.2120004,1.3729501,1781186714472
2077242905,3,0.43995002,6.6900005,1.4809501,1781186714483
2077242915,3,0.45405003,5.8230004,1.608,1781186714492
2077242925,3,0.36105,5.076,1.08105,1781186714503
2077242936,3,0.20295002,4.62405,0.813,1781186714513
2077242946,3,0.33,3.86505,0.92295,1781186714523
2077242956,3,0.25995,3.4459503,0.78900003,1781186714534
2077242966,3,0.094950005,3.594,0.68805003,1781186714543
2077242976,3,0.12900001,3.5850003,0.61200005,1781186714553
2077242986,3,0.009000001,3.867,1.8400501,1781186714563
2077242996,3,-0.18105,4.4419503,3.48495,1781186714573
2077243006,3,-0.18900001,5.1000004,2.76705,1781186714583
2077243016,3,-0.094950005,5.6920505,0.882,1781186714593
2077243026,3,-0.094950005,6.63,-0.015000001,1781186714602
2077243036,3,-0.109950006,8.809051,0.042000003,1781186714613
2077243046,3,-0.08595,12.201,-0.93600005,1781186714624
2077243056,3,0.42795002,15.838051,0.97305006,1781186714634
2077243066,3,1.7590501,17.99805,0.13800001,1781186714644
2077243077,3,3.5430002,17.253,-1.6900501,1781186714654
2077243087,3,5.05095,15.958051,-6.1249504,1781186714663
2077243097,3,4.9170003,16.91295,-9.91905,1781186714675
2077243107,3,3.519,16.791,-8.908951,1781186714684
2077243117,3,1.2060001,16.774052,-9.4789505,1781186714694
2077243127,3,-0.63195,16.018051,-7.34595,1781186714704
2077243137,3,-0.91905004,13.06095,-4.78905,1781186714714
2077243147,3,-1.1890501,11.538,-3.21795,1781186714724
2077243157,3,-1.3930501,10.626,-2.1019502,1781186714734
2077243167,3,-1.6489501,9.89295,-1.2550501,1781186714745
2077243177,3,-1.95105,9.538951,-1.0489501,1781186714754
2077243187,3,-2.2360501,9.144,-1.0849501,1781186714765
2077243197,3,-2.5129502,8.96205,-1.1710501,1781186714775
2077243208,3,-2.7769501,8.821051,-1.161,1781186714785
2077243218,3,-2.9950502,8.809051,-1.2019501,1781186714793
2077243228,3,-3.1720502,8.76105,-1.1590501,1781186714805
2077243238,3,-3.3079503,8.63595,-1.0489501,1781186714815
2077243248,3,-3.21,8.364,-0.89295006,1781186714824
2077243258,3,-2.80095,7.9879503,-0.67800003,1781186714835
2077243268,3,-2.4060001,7.7460003,-0.26805001,1781186714845
2077243278,3,-2.0970001,7.4490004,0.028050002,1781186714855
2077243288,3,-1.9219501,7.42995,0.10395,1781186714866
2077243298,3,-1.9080001,7.4820004,0.11595,1781186714874
2077243308,3,-1.9459502,7.7509503,0.102000006,1781186714885
2077243318,3,-1.9699501,8.136001,-0.04095,1781186714895
2077243328,3,-2.08995,8.838,-0.37395,1781186714906
2077243339,3,-2.2090502,9.55605,-0.66300005,1781186714916
2077243349,3,-2.21895,10.221001,-1.161,1781186714926
2077243359,3,-2.1040502,10.67205,-1.51995,1781186714936
2077243369,3,-1.917,10.851001,-1.9750501,1781186714946
2077243379,3,-1.8190501,11.11005,-2.4850502,1781186714956
2077243389,3,-1.8649501,11.193001,-2.8279502,1781186714966
2077243399,3,-1.9720501,11.313001,-3.00495,1781186714976
2077243409,3,-2.0659502,10.851001,-2.94705,1781186714986
2077243419,3,-2.094,10.33395,-2.7460501,1781186714997
2077243429,3,-2.1330001,9.91695,-2.598,1781186715007
2077243439,3,-2.20005,9.558001,-2.52795,1781186715017
2077243449,3,-2.29605,9.205951,-2.5879502,1781186715027
2077243459,3,-2.319,8.851951,-2.5740001,1781186715037
2077243470,3,-2.355,8.553,-2.73405,1781186715046
2077243480,3,-2.5090501,8.359051,-2.7820501,1781186715055
2077243490,3,-2.5900502,8.313001,-2.9880002,1781186715068
2077243500,3,-2.667,8.3560505,-3.0340502,1781186715076
2077243510,3,-2.7240002,8.29395,-3.1270502,1781186715087
2077243520,3,-2.80305,8.208,-3.1630502,1781186715098
2077243530,3,-2.90595,8.14095,-3.2080503,1781186715108
2077243540,3,-2.9989502,8.091001,-3.1630502,1781186715118
2077243550,3,-2.97495,7.9590006,-3.081,1781186715128
2077243560,3,-2.901,7.9350004,-2.87595,1781186715138
2077243570,3,-2.607,8.292001,-2.50005,1781186715148
2077243580,3,-2.29305,9.07005,-2.0689502,1781186715158
2077243590,3,-2.05605,10.21695,-1.82895,1781186715168
2077243600,3,-1.7230501,11.251051,-1.6690501,1781186715176
2077243611,3,-1.1890501,12.184951,-1.50405,1781186715186
2077243621,3,-0.54105,13.071001,-1.1730001,1781186715198
2077243631,3,0.15795001,14.221951,-0.89595,1781186715208
2077243641,3,0.87795,15.346951,-0.60300004,1781186715217
2077243651,3,1.6540501,16.042051,-0.44505003,1781186715227
2077243661,3,2.49705,15.934051,-0.57495004,1781186715237
2077243671,3,3.3660002,15.043051,-1.164,1781186715249
2077243681,3,4.09095,13.83195,-1.5679501,1781186715257
2077243691,3,4.64895,12.08895,-1.7310001,1781186715268
2077243701,3,4.9440002,10.87695,-2.4109502,1781186715278
2077243711,3,4.83795,9.826051,-3.15105,1781186715287
2077243721,3,4.572,9.084001,-3.7540503,1781186715298
2077243731,3,4.25595,8.373,-4.36695,1781186715308
2077243742,3,4.02705,7.7550006,-4.77405,1781186715319
2077243752,3,3.7870502,7.18095,-4.899,1781186715329
2077243762,3,3.6670501,6.6730504,-4.8169503,1781186715337
2077243772,3,3.6529503,6.40005,-4.50105,1781186715348
2077243782,3,3.6220503,6.3310504,-4.116,1781186715358
2077243792,3,3.6550503,6.5389504,-3.6030002,1781186715370
2077243802,3,3.696,7.0849504,-3.144,1781186715378
2077243812,3,3.7510502,7.8100505,-2.7799501,1781186715388
2077243822,3,3.76095,8.835,-2.49495,1781186715400
2077243832,3,3.6870003,9.807,-2.08095,1781186715409
2077243842,3,3.7729502,10.557,-1.91805,1781186715419
2077243852,3,3.8950503,10.903951,-1.8030001,1781186715430
2077243862,3,3.9160502,10.774951,-1.6189501,1781186715440
2077243873,3,3.9880502,10.17405,-1.69305,1781186715450
2077243883,3,4.01895,9.490951,-1.9420501,1781186715460
2077243893,3,3.9930003,8.967,-2.18595,1781186715469
2077243903,3,3.9019501,8.61495,-2.466,1781186715479
2077243913,3,3.7680001,8.401951,-2.7940502,1781186715491
2077243923,3,3.7180502,8.241,-3.2010002,1781186715500
2077243933,3,3.7560003,8.091001,-3.55995,1781186715511
2077243943,3,3.8250003,8.00895,-3.795,1781186715519
2077243953,3,3.8830502,7.9489503,-3.9100502,1781186715530
2077243963,3,3.8920503,8.02095,-3.9070501,1781186715541
2077243973,3,3.8209503,8.229,-3.7519503,1781186715551
2077243983,3,3.7110002,8.389951,-3.594,1781186715561
2077243993,3,3.5689502,8.610001,-3.4290001,1781186715570
2077244003,3,3.426,8.9740505,-3.27795,1781186715581
2077244014,3,3.25305,9.61305,-3.1369503,1781186715590
2077244024,3,3.04005,10.456051,-3.00195,1781186715601
2077244034,3,2.76195,11.245951,-2.8609502,1781186715611
2077244044,3,2.43195,11.86095,-2.7180002,1781186715621
2077244054,3,2.0629501,12.313951,-2.5860002,1781186715631
2077244064,3,1.55805,12.637051,-2.5789502,1781186715641
2077244074,3,0.97395,12.616051,-2.39895,1781186715651
2077244084,3,0.47595003,12.178051,-2.2120502,1781186715661
2077244094,3,0.105000004,11.598001,-2.088,1781186715671
2077244104,3,-0.16005,10.81305,-1.75995,1781186715682
2077244114,3,-0.246,10.00395,-1.2859501,1781186715691
2077244124,3,-0.294,9.30195,-0.69195,1781186715702
2077244134,3,-0.24405001,8.644051,-0.177,1781186715711
2077244145,3,-0.201,8.12205,0.42495003,1781186715722
2077244155,3,-0.112050004,7.9009504,0.89400005,1781186715732
2077244165,3,-0.057000004,7.7650504,1.20105,1781186715742
2077244175,3,0.112050004,7.5540004,1.7509501,1781186715752
2077244185,3,0.423,7.5610504,2.24895,1781186715762
2077244195,3,0.768,7.6090503,2.63505,1781186715772
2077244205,3,1.218,7.9879503,2.8840501,1781186715782
2077244215,3,1.491,8.613001,2.6440501,1781186715792
2077244225,3,1.9120501,9.003,2.2060502,1781186715802
2077244235,3,2.3719501,9.26895,2.0700002,1781186715813
2077244245,3,3.009,9.337951,2.5440001,1781186715823
2077244255,3,3.31095,9.43605,3.1260002,1781186715832
2077244265,3,3.4060502,9.655951,3.8100002,1781186715843
2077244276,3,2.94195,9.999001,3.8059502,1781186715853
2077244286,3,2.4870002,10.305,3.0730503,1781186715863
2077244296,3,2.1450002,10.609051,2.08395,1781186715873
2077244306,3,2.0320501,10.69095,1.58895,1781186715883
2077244316,3,1.9750501,10.747951,1.01205,1781186715893
2077244326,3,1.8240001,10.84605,0.60195005,1781186715903
2077244336,3,1.5150001,10.936951,0.54705,1781186715913
2077244346,3,1.16505,11.007001,0.33405003,1781186715923
2077244356,3,0.84495,10.827001,0.087000005,1781186715933
2077244366,3,0.58605003,10.66005,-0.08895,1781186715943
2077244376,3,0.32505003,10.585051,-0.48105,1781186715954
2077244386,3,0.028050002,10.39095,-1.01505,1781186715963
2077244396,3,-0.30600002,10.224001,-1.1539501,1781186715974
2077244407,3,-0.48600003,10.03005,-1.26705,1781186715984
2077244417,3,-0.49995002,9.766951,-1.45605,1781186715994
2077244427,3,-0.411,9.634951,-1.4490001,1781186716004
2077244437,3,-0.31800002,9.558001,-1.31505,1781186716014
2077244447,3,-0.165,9.46695,-1.1920501,1781186716024
2077244457,3,-0.0139500005,9.37605,-0.90795004,1781186716034
2077244467,3,0.07095,9.37905,-0.58395004,1781186716044
2077244477,3,0.15300001,9.451051,-0.43605003,1781186716054
2077244487,3,0.17400001,9.484051,-0.37395,1781186716064
2077244497,3,0.26505002,9.496051,-0.381,1781186716075
2077244507,3,0.37305,9.56295,-0.45495003,1781186716084
2077244517,3,0.51900005,9.678,-0.57195,1781186716094
2077244527,3,0.68700004,9.771001,-0.75705004,1781186716105
2077244537,3,0.8880001,9.811951,-0.71805006,1781186716115
2077244548,3,1.16805,9.795,-0.74700004,1781186716125
2077244558,3,1.4650501,9.774,-0.89805007,1781186716135
2077244568,3,1.6660501,9.723001,-1.1520001,1781186716145
2077244578,3,1.7400001,9.484051,-1.3219501,1781186716155
2077244588,3,1.5700501,9.087001,-1.1880001,1781186716165
2077244598,3,1.3470001,8.713051,-0.85995007,1781186716175
2077244608,3,1.2760501,8.45505,-0.61995006,1781186716185
2077244618,3,1.23,8.3869505,-0.51705,1781186716195
2077244628,3,1.28505,8.94495,-0.72300005,1781186716206
2077244638,3,1.4820001,10.968,-1.2090001,1781186716216
2077244648,3,1.74705,11.280001,-3.31095,1781186716226
2077244658,3,1.9890001,11.689051,-4.9939504,1781186716235
2077244668,3,1.8529501,13.07505,-6.13605,1781186716244
2077244679,3,1.4620501,13.06095,-6.1650004,1781186716256
2077244689,3,1.5700501,12.343051,-6.6390004,1781186716265
2077244699,3,1.6849501,12.283051,-6.2710505,1781186716275
2077244709,3,1.50495,11.581051,-5.0059505,1781186716285
2077244719,3,1.1869501,10.771951,-4.52505,1781186716295
2077244729,3,1.24905,10.594951,-4.53,1781186716305
2077244739,3,1.3090501,10.068001,-3.936,1781186716315
2077244749,3,1.28505,9.357,-3.0310502,1781186716327
2077244759,3,1.01205,8.835,-2.4780002,1781186716337
2077244769,3,0.68205005,8.265,-2.05905,1781186716347
2077244779,3,0.44700003,7.6840506,-1.779,1781186716357
2077244789,3,0.33705002,7.3960505,-1.5439501,1781186716367
2077244799,3,0.29895002,7.5040503,-1.47,1781186716378
2077244810,3,0.39000002,7.8970504,-2.088,1781186716386
2077244820,3,0.54300004,8.3869505,-2.6790001,1781186716396
2077244830,3,0.64395005,8.93805,-3.49095,1781186716408
2077244840,3,0.768,9.337951,-4.137,1781186716416
2077244850,3,0.84195006,9.805051,-4.40805,1781186716426
2077244860,3,0.90900004,10.38195,-4.3720503,1781186716438
2077244870,3,1.0030501,10.995001,-4.1520004,1781186716448
2077244880,3,1.0860001,11.47605,-3.8520002,1781186716458
2077244890,3,1.05495,11.691001,-3.5410502,1781186716468
2077244900,3,0.91905004,11.458951,-3.1320002,1781186716478
2077244910,3,0.804,11.043,-2.5810502,1781186716488
2077244920,3,0.75405,10.52805,-2.12895,1781186716498
2077244930,3,0.70095,9.927,-1.7689501,1781186716507
2077244941,3,0.56700003,9.28995,-1.4130001,1781186716518
2077244951,3,0.40695003,8.75895,-1.2,1781186716526
2077244961,3,0.25605002,8.39505,-0.9289501,1781186716538
2077244971,3,0.18900001,8.103001,-0.45000002,1781186716547
2077244981,3,0.112050004,8.04,-0.08895,1781186716558
2077244991,3,0.07095,8.076,0.00795,1781186716567
2077245001,3,0.064050004,8.203051,0.034950003,1781186716577
2077245011,3,0.19095,8.335051,0.066,1781186716589
2077245021,3,0.51405,8.73495,-0.26805001,1781186716599
2077245031,3,0.85200006,8.92605,-0.88395005,1781186716609
2077245041,3,0.99600005,9.040951,-1.269,1781186716619
2077245051,3,1.1890501,9.087001,-1.365,1781186716629
2077245061,3,1.3120501,9.148951,-1.0339501,1781186716637
2077245071,3,1.36905,9.35505,-0.63900006,1781186716648
2077245082,3,1.3909501,9.75,-0.28995,1781186716658
2077245092,3,1.4460001,10.152,-0.060000002,1781186716669
2077245102,3,1.52205,10.444051,0.022950001,1781186716678
2077245112,3,1.67505,10.56105,-0.034050003,1781186716689
2077245122,3,1.8769501,10.441951,0.04695,1781186716699
2077245132,3,2.0010002,10.243051,0.09,1781186716709
2077245142,3,2.0370002,9.999001,0.15900001,1781186716719
2077245152,3,2.0299501,9.8220005,0.27705002,1781186716730
2077245162,3,2.0370002,9.73095,0.26505002,1781186716739
2077245172,3,2.0389502,9.7570505,0.27195,1781186716749
2077245182,3,2.04705,9.795,0.24300002,1781186716758
2077245192,3,2.14995,9.87195,0.26505002,1781186716770
2077245202,3,2.29095,9.88605,0.26700002,1781186716779
2077245213,3,2.43195,9.799951,0.26205,1781186716790
2077245223,3,2.59995,9.723001,0.25995,1781186716800
2077245233,3,2.7190502,9.658951,0.26505002,1781186716809
2077245243,3,2.7910502,9.534,0.22605,1781186716820
2077245253,3,2.877,9.42405,0.11895001,1781186716830
2077245263,3,2.976,9.30195,0.06795,1781186716840
2077245273,3,3.1020002,9.187051,0.10695001,1781186716850
2077245283,3,3.25605,9.144,0.14505,1781186716860
2077245293,3,3.37995,9.20205,0.09900001,1781186716870
2077245303,3,3.48495,9.29205,0.0,1781186716880
2077245313,3,3.6049502,9.4459505,-0.08400001,1781186716890
2077245323,3,3.6990001,9.53205,-0.156,1781186716901
2077245333,3,3.76605,9.53205,-0.30705002,1781186716910
2077245344,3,3.79905,9.4480505,-0.52905005,1781186716921
2077245354,3,3.7489502,9.29205,-0.675,1781186716931
2077245364,3,3.69405,9.108001,-0.80505,1781186716941
2077245374,3,3.6409502,9.03195,-0.84795004,1781186716950
2077245384,3,3.5740502,9.063001,-0.91200006,1781186716960
2077245394,3,3.519,9.18,-1.03695,1781186716971
2077245404,3,3.4380002,9.316051,-1.08,1781186716981
2077245414,3,3.39,9.526951,-1.092,1781186716991
2077245424,3,3.3420002,9.75,-1.09695,1781186717001
2077245434,3,3.2920501,9.92205,-1.10595,1781186717011
2077245444,3,3.2580001,10.044001,-1.14195,1781186717021
2077245454,3,3.21495,10.1640005,-1.2090001,1781186717031
2077245464,3,3.17895,10.2960005,-1.17795,1781186717043
2077245475,3,3.141,10.486951,-1.1370001,1781186717052
2077245485,3,3.1240501,10.650001,-1.07505,1781186717062
2077245495,3,3.0880501,10.771951,-0.93105006,1781186717072
2077245505,3,3.0210001,10.759951,-0.82395005,1781186717082
2077245515,3,2.8510501,10.545,-0.67995006,1781186717092
2077245525,3,2.5729501,10.297951,-0.57705003,1781186717102
2077245535,3,2.25495,10.068001,-0.711,1781186717112
2077245545,3,1.9339501,9.786,-0.83295006,1781186717122
2077245555,3,1.6660501,9.41205,-1.008,1781186717130
2077245565,3,1.4460001,9.148951,-1.1689501,1781186717141
2077245575,3,1.21095,8.895,-1.31505,1781186717151
2077245585,3,0.97200006,8.943001,-1.3069501,1781186717163
2077245595,3,0.72300005,9.11295,-1.3290001,1781186717173
2077245605,3,0.54795,9.333,-1.47,1781186717183
2077245616,3,0.40905002,9.74295,-1.6110001,1781186717193
2077245626,3,0.31305,10.19505,-1.8559501,1781186717203
2077245636,3,0.21705002,10.542001,-2.15505,1781186717213
2077245646,3,0.14595,10.71195,-2.4090002,1781186717222
2077245656,3,0.08595,10.714951,-2.60505,1781186717232
2077245666,3,0.01905,10.588051,-2.6509502,1781186717242
2077245676,3,-0.045,10.375051,-2.26005,1781186717253
2077245686,3,0.009000001,10.111051,-1.7479501,1781186717263
2077245696,3,0.109950006,9.879001,-1.3939501,1781186717272
2077245706,3,0.13395001,9.66405,-1.13505,1781186717283
2077245716,3,0.16005,9.522,-1.02495,1781186717293
2077245726,3,0.19605,9.36705,-1.01505,1781186717302
2077245736,3,0.27195,9.24195,-1.04205,1781186717314
2077245747,3,0.27705002,9.193951,-1.14195,1781186717323
2077245757,3,0.26295,9.148951,-1.2210001,1781186717334
2077245767,3,0.22905001,9.175051,-1.26405,1781186717344
2077245777,3,0.17205001,9.30195,-1.2430501,1781186717354
2077245787,3,0.13605,9.573001,-1.2,1781186717363
2077245797,3,0.102000006,9.8890505,-1.26195,1781186717374
2077245807,3,0.102000006,10.132951,-1.353,1781186717383
2077245817,3,0.201,10.17405,-1.353,1781186717394
2077245827,3,0.39900002,10.107,-1.31505,1781186717404
2077245837,3,0.61005,10.044001,-1.29795,1781186717415
2077245847,3,0.78000003,9.979951,-1.3549501,1781186717424
2077245857,3,0.933,10.032001,-1.3960501,1781186717435
2077245867,3,0.9979501,10.123051,-1.4820001,1781186717445
2077245878,3,0.9670501,10.305,-1.6110001,1781186717455
2077245888,3,0.89505005,10.48005,-1.7550001,1781186717465
2077245898,3,0.83505005,10.684051,-1.8510001,1781186717474
2077245908,3,0.82305,10.726951,-1.87995,1781186717485
2077245918,3,0.86100006,10.593,-1.8750001,1781186717495
2077245928,3,0.87600005,10.329,-1.8769501,1781186717505
2077245938,3,0.84705,9.823951,-1.8199501,1781186717514
2077245948,3,0.72705,9.481951,-1.7260501,1781186717525
2077245958,3,0.55005,9.38805,-1.6330501,1781186717534
2077245968,3,0.40395,9.369,-1.5679501,1781186717545
2077245978,3,0.28905,9.43605,-1.5130501,1781186717556
2077245988,3,0.24900001,9.561001,-1.4460001,1781186717566
2077245998,3,0.23895001,9.67605,-1.3789501,1781186717575
2077246008,3,0.26505002,9.8890505,-1.353,1781186717585
2077246019,3,0.32295,10.15005,-1.2400501,1781186717596
2077246029,3,0.46905002,10.317,-1.18005,1781186717606
2077246039,3,0.59595,10.52595,-1.092,1781186717615
2077246049,3,0.71805006,10.633051,-0.9990001,1781186717626
2077246059,3,0.82995003,10.630951,-0.93405,1781186717636
2077246069,3,0.90195006,10.564051,-0.93105006,1781186717646
2077246079,3,0.97200006,10.485001,-1.06095,1781186717656
2077246089,3,1.06305,10.40295,-1.25205,1781186717666
2077246099,3,1.1509501,10.221001,-1.44105,1781186717675
2077246109,3,1.25205,9.91005,-1.5370501,1781186717687
2077246119,3,1.32105,9.68505,-1.5300001,1781186717695
2077246129,3,1.314,9.55605,-1.5160501,1781186717707
2077246139,3,1.23705,9.496051,-1.4989501,1781186717716
2077246150,3,1.1539501,9.496051,-1.51995,1781186717727
2077246160,3,1.1080501,9.472051,-1.5660001,1781186717736
2077246170,3,1.05795,9.441,-1.5970501,1781186717746
2077246180,3,0.97605,9.42405,-1.5990001,1781186717757
2077246190,3,0.88095003,9.36705,-1.5829501,1781186717768
2077246200,3,0.78705,9.28995,-1.542,1781186717778
2077246210,3,0.65295005,9.30195,-1.5319501,1781186717788
2077246220,3,0.49500003,9.280951,-1.56105,1781186717798
2077246230,3,0.351,9.27105,-1.554,1781186717807
2077246240,3,0.201,9.28995,-1.47,1781186717818
2077246250,3,0.069000006,9.36705,-1.31895,1781186717829
2077246260,3,-0.028050002,9.462001,-1.1880001,1781186717838
2077246270,3,-0.13605,9.64395,-1.0870501,1781186717847
2077246281,3,-0.25605002,9.702001,-1.14195,1781186717858
2077246291,3,-0.38505003,9.835951,-1.21605,1781186717866
2077246301,3,-0.46605003,9.967951,-1.2400501,1781186717878
2077246311,3,-0.46605003,10.07295,-1.233,1781186717886
2077246321,3,-0.34395,9.967951,-1.2280501,1781186717898
2077246331,3,-0.19095,9.762,-1.1880001,1781186717908
2077246341,3,-0.081,9.538951,-1.2280501,1781186717919
2077246351,3,-0.045,9.340051,-1.2709501,1781186717929
2077246361,3,-0.058950003,9.25905,-1.38405,1781186717939
2077246371,3,-0.058950003,9.35505,-1.5370501,1781186717947
2077246381,3,-0.061950002,9.54405,-1.7310001,1781186717957
2077246391,3,-0.025950002,9.87405,-1.8049501,1781186717969
2077246401,3,0.07095,10.233001,-1.8390001,1781186717977
2077246412,3,0.13095,10.585051,-1.7740501,1781186717987
2077246422,3,0.16995001,10.783951,-1.72905,1781186717998
2077246432,3,0.165,10.851001,-1.7550001,1781186718009
2077246442,3,0.08595,10.830001,-1.7860501,1781186718019
2077246452,3,0.021000002,10.861051,-1.8049501,1781186718029
2077246462,3,-0.07395,10.93305,-1.8049501,1781186718039
2077246472,3,-0.13605,10.87005,-1.8769501,1781186718051
2077246482,3,-0.22905001,10.84395,-1.899,1781186718059
2077246492,3,-0.30405003,10.714951,-1.8919501,1781186718068
2077246502,3,-0.39900002,10.578,-1.8679501,1781186718079
2077246512,3,-0.44700003,10.51395,-1.79805,1781186718089
2077246522,3,-0.45405003,10.48005,-1.69305,1781186718098
2077246532,3,-0.46395,10.52805,-1.63995,1781186718111
2077246542,3,-0.42105,10.627951,-1.6110001,1781186718120
2077246553,3,-0.27,10.65495,-1.6470001,1781186718130
2077246563,3,-0.057000004,10.593,-1.7479501,1781186718139
2077246573,3,0.124050006,10.588051,-1.8409501,1781186718149
2077246583,3,0.30405003,10.5709505,-1.8079501,1781186718160
2077246593,3,0.51405,10.32705,-1.72905,1781186718170
2077246603,3,0.6,9.89805,-1.6860001,1781186718180
2077246613,3,0.57405,9.604051,-1.60395,1781186718190
2077246623,3,0.50895,9.43395,-1.54005,1781186718199
2077246633,3,0.39705002,9.40695,-1.51995,1781186718209
2077246643,3,0.29205,9.4480505,-1.54005,1781186718220
2077246653,3,0.15300001,9.538951,-1.542,1781186718230
2077246663,3,-0.0139500005,9.514951,-1.473,1781186718240
2077246673,3,-0.23400001,9.41895,-1.41795,1781186718251
2077246684,3,-0.47100002,9.264001,-1.3099501,1781186718260
2077246694,3,-0.648,9.22305,-1.1040001,1781186718269
2077246704,3,-0.711,9.187051,-0.79695004,1781186718280
2077246714,3,-0.90405005,9.29205,-0.91995007,1781186718290
2077246724,3,-1.1149501,9.427051,-0.82095003,1781186718300
2077246734,3,-1.2970501,9.59895,-0.86205006,1781186718311
2077246744,3,-1.434,9.67605,-1.008,1781186718321
2077246754,3,-1.55805,9.74505,-1.176,1781186718331
2077246764,3,-1.6009501,9.786,-1.2760501,1781186718341
2077246774,3,-1.5820501,9.77595,-1.4290501,1781186718350
2077246784,3,-1.44105,9.799951,-1.4940001,1781186718361
2077246794,3,-1.0000501,9.690001,-1.5130501,1781186718371
2077246804,3,-0.67695004,9.625051,-1.7050501,1781186718381
2077246815,3,-0.462,9.477,-1.9060501,1781186718391
2077246825,3,-0.34695002,9.39105,-2.04195,1781186718401
2077246835,3,-0.31800002,9.382951,-2.16,1781186718413
2077246845,3,-0.33,9.39795,-2.2050002,1781186718421
2077246855,3,-0.35595003,9.622951,-2.184,1781186718432
2077246865,3,-0.39495003,10.02495,-2.02095,1781186718441
2077246875,3,-0.35895002,10.453951,-1.8079501,1781186718452
2077246885,3,-0.25305,10.983001,-1.5970501,1781186718462
2077246895,3,0.0,11.478001,-1.38405,1781186718477
2077246905,3,0.26505002,12.13395,-1.2400501,1781186718482
2077246915,3,0.63405,12.823951,-1.0030501,1781186718493
2077246925,3,1.13205,13.336051,-0.85995007,1781186718503
2077246935,3,1.695,13.276051,-1.15695,1781186718513
2077246946,3,2.3719501,12.955951,-1.233,1781186718523
2077246956,3,2.8459501,12.537001,-1.389,1781186718533
2077246966,3,3.2340002,11.7300005,-1.8390001,1781186718543
2077246976,3,3.4470003,10.759951,-2.11395,1781186718553
2077246986,3,3.6120002,9.925051,-2.18595,1781186718563
2077246996,3,3.69405,9.22305,-2.0740502,1781186718573
2077247006,3,3.66,8.61705,-1.9660501,1781186718583
2077247016,3,3.4759502,8.16495,-1.7809501,1781186718593
2077247026,3,3.1620002,7.8180003,-1.5799501,1781186718602
2077247036,3,2.6190002,8.079,-1.5799501,1781186718613
2077247046,3,2.14695,8.45505,-1.4080501,1781186718623
2077247056,3,1.7740501,8.694,-1.34595,1781186718632
2077247066,3,1.4820001,8.871,-1.212,1781186718643
2077247076,3,1.27995,9.019951,-1.1920501,1781186718654
2077247087,3,1.125,9.132,-1.317,1781186718664
2077247097,3,1.01505,9.21105,-1.4440501,1781186718674
2077247107,3,1.0390501,9.166051,-1.59,1781186718684
2077247117,3,1.24905,9.163051,-1.64505,1781186718693
2077247127,3,1.47195,9.1369505,-1.8270001,1781186718703
2077247137,3,1.74195,9.213,-1.8390001,1781186718713
2077247147,3,2.05395,9.273001,-1.8220501,1781186718724
2077247157,3,2.391,9.417001,-1.9080001,1781186718733
2077247167,3,2.71005,9.592051,-1.9900501,1781186718744
2077247177,3,3.0660002,9.670951,-2.05395,1781186718754
2077247187,3,3.3990002,9.61305,-2.08995,1781186718765
2077247197,3,3.7030501,9.534,-2.0380502,1781186718775
2077247207,3,3.9570003,9.312,-2.0350502,1781186718784
2077247218,3,4.0620003,9.04605,-1.9750501,1781186718795
2077247228,3,4.0939503,8.707951,-1.9080001,1781186718805
2077247238,3,3.9810002,8.34195,-1.9009501,1781186718815
2077247248,3,3.79695,8.103001,-1.9849501,1781186718825
2077247258,3,3.6430502,7.8780003,-2.088,1781186718835
2077247268,3,3.5410502,7.7410502,-2.229,1781186718845
2077247278,3,3.4020002,7.6759505,-2.32305,1781186718855
2077247288,3,3.25605,7.7410502,-2.33205,1781186718865
2077247298,3,3.15,7.9159503,-2.28195,1781186718875
2077247308,3,3.009,8.11005,-2.19105,1781186718886
2077247318,3,2.9490001,8.373,-2.052,1781186718895
2077247328,3,2.9280002,8.680051,-1.8649501,1781186718906
2077247338,3,2.94705,9.07905,-1.7340001,1781186718916
2077247349,3,2.973,9.477,-1.6210501,1781186718926
2077247359,3,2.98005,9.903001,-1.5439501,1781186718935
2077247369,3,2.90595,10.264951,-1.5660001,1781186718945
2077247379,3,2.8200002,10.49205,-1.65495,1781186718956
2077247389,3,2.7550502,10.67895,-1.743,1781186718967
2077247399,3,2.667,10.759951,-1.8319501,1781186718975
2077247409,3,2.5849502,10.686001,-1.8079501,1781186718984
2077247419,3,2.50605,10.48005,-1.6620001,1781186718997
2077247429,3,2.4180002,10.30305,-1.48905,1781186719008
2077247439,3,2.334,10.159051,-1.3480501,1781186719017
2077247449,3,2.25195,10.1980505,-1.2430501,1781186719027
2077247459,3,2.2090502,10.285951,-1.1520001,1781186719037
2077247469,3,2.19495,10.44705,-1.06605,1781186719047
2077247479,3,2.217,10.67205,-0.95505005,1781186719056
2077247490,3,2.3050501,11.040001,-0.85005003,1781186719068
2077247500,3,2.3770502,11.497951,-0.79305005,1781186719078
2077247510,3,2.4850502,11.896951,-0.77595,1781186719087
2077247520,3,2.5540502,12.034051,-0.83805007,1781186719097
2077247530,3,2.5800002,11.737051,-0.85995007,1781186719107
2077247540,3,2.45805,11.200951,-0.93600005,1781186719116
2077247550,3,2.16105,10.63605,-1.18005,1781186719128
2077247560,3,1.6990501,10.152,-1.4059501,1781186719138
2077247570,3,1.2349501,9.655951,-1.6210501,1781186719147
2077247580,3,0.81795,9.41205,-1.6639501,1781186719158
2077247590,3,0.36795002,9.07005,-1.75995,1781186719167
2077247600,3,-0.07095,8.847,-1.7890501,1781186719178
2077247610,3,-0.483,8.69205,-1.899,1781186719186
2077247621,3,-0.89295006,8.778001,-1.84395,1781186719198
2077247631,3,-1.2970501,8.976001,-1.746,1781186719206
2077247641,3,-1.7160001,9.309,-1.72395,1781186719217
2077247651,3,-2.08995,9.646951,-1.5850501,1781186719226
2077247661,3,-2.3070002,9.92205,-1.45305,1781186719236
2077247671,3,-2.45805,10.18305,-1.2570001,1781186719249
2077247681,3,-2.59995,10.317,-1.09695,1781186719258
2077247691,3,-2.67105,10.441951,-0.95505005,1781186719267
2077247701,3,-2.70705,10.429951,-0.78300005,1781186719277
2077247711,3,-2.71005,10.498951,-0.63900006,1781186719288
2077247721,3,-2.69805,10.593,-0.54405004,1781186719298
2077247731,3,-2.5830002,10.762951,-0.47205,1781186719308
2077247741,3,-2.2450502,10.827001,-0.34500003,1781186719317
2077247752,3,-1.7500501,10.674001,-0.52395004,1781186719327
2077247762,3,-1.3759501,10.461,-0.74205005,1781186719339
2077247772,3,-1.0860001,10.233001,-0.84300005,1781186719349
2077247782,3,-0.86100006,10.03905,-0.83100003,1781186719358
2077247792,3,-0.69405,9.90495,-0.78105,1781186719369
2077247802,3,-0.48105,9.762,-0.77595,1781186719379
2077247812,3,-0.25305,9.702001,-0.72300005,1781186719388
2077247822,3,0.00405,9.606001,-0.72795004,1781186719398
2077247832,3,0.20295002,9.526951,-0.75195,1781186719410
2077247842,3,0.33195,9.691951,-0.61995006,1781186719418
2077247852,3,0.45405003,9.858001,-0.58905005,1781186719430
2077247862,3,0.555,9.951,-0.67095006,1781186719440
2077247872,3,0.59295005,9.927,-0.78495,1781186719450
2077247883,3,0.57405,9.85305,-0.80895007,1781186719459
2077247893,3,0.46605003,9.68295,-0.91695005,1781186719470
2077247903,3,0.23205002,9.57495,-0.92205006,1781186719480
2077247913,3,-0.069000006,9.57495,-0.87900007,1781186719490
2077247923,3,-0.32295,9.58695,-0.73995006,1781186719499
2077247933,3,-0.507,9.642,-0.64905006,1781186719510
2077247943,3,-0.62700003,9.585,-0.65895003,1781186719520
2077247953,3,-0.79395,9.472051,-0.76395005,1781186719531
2077247963,3,-0.924,9.382951,-0.86700004,1781186719540
2077247973,3,-1.05495,9.36705,-0.95100003,1781186719550
2077247983,3,-1.2040501,9.41895,-0.9580501,1781186719561
2077247993,3,-1.3399501,9.534,-0.90300006,1781186719570
2077248003,3,-1.35195,9.522,-0.68700004,1781186719579
2077248013,3,-1.2589501,9.68505,-0.24000001,1781186719591
2077248024,3,-1.08405,10.188001,0.18300001,1781186719601
2077248034,3,-0.70605004,10.52595,0.51795,1781186719611
2077248044,3,-0.35895002,10.830001,0.51105005,1781186719621
2077248054,3,0.17895001,10.714951,0.45600003,1781186719631
2077248064,3,0.65805006,10.461,0.15,1781186719641
2077248074,3,0.89505005,10.05105,-0.25395,1781186719651
2077248084,3,0.99105006,9.658951,-0.52395004,1781186719661
2077248094,3,1.029,9.34305,-0.79695004,1781186719671
2077248104,3,1.0390501,9.12495,-0.82095003,1781186719681
2077248114,3,1.0890001,8.907001,-0.83595,1781186719691
2077248124,3,1.0720501,8.862,-0.75900006,1781186719700
2077248134,3,1.0000501,8.998051,-0.606,1781186719711
2077248144,3,0.84495,9.25695,-0.441,1781186719722
2077248155,3,0.73905003,9.54405,-0.177,1781186719732
2077248165,3,0.71805006,9.798,-0.01695,1781186719742
2077248175,3,0.735,9.937051,0.042000003,1781186719752
2077248185,3,0.77295005,9.951,0.01305,1781186719762
2077248195,3,0.79005,9.835951,-0.0049500004,1781186719772
2077248205,3,0.76995003,9.747001,-0.02205,1781186719782
2077248215,3,0.744,9.640051,-0.04095,1781186719792
2077248225,3,0.76605004,9.541051,-0.048,1781186719802
2077248235,3,0.80595005,9.4789505,-0.096,1781186719813
2077248245,3,0.837,9.534,-0.18705001,1781186719823
2077248255,3,0.91905004,9.65205,-0.23505001,1781186719831
2077248265,3,0.93795,9.7570505,-0.23505001,1781186719843
2077248275,3,0.91395,9.87705,-0.18405001,1781186719853
2077248286,3,0.78705,9.937051,-0.015000001,1781186719863
2077248296,3,0.64095,9.987,0.13800001,1781186719873
2077248306,3,0.45900002,9.996,0.363,1781186719883
2077248316,3,0.31995,10.03905,0.564,1781186719893
2077248326,3,0.19800001,10.04895,0.67605,1781186719903
2077248336,3,0.10695001,9.999001,0.82695,1781186719913
2077248346,3,0.07395,9.88605,0.873,1781186719923
2077248356,3,0.07095,9.793051,0.81495005,1781186719933
2077248366,3,0.105000004,9.703951,0.753,1781186719943
2077248376,3,0.069000006,9.673051,0.588,1781186719953
2077248386,3,0.0,9.658951,0.52305,1781186719963
2077248396,3,-0.08295,9.69495,0.51600003,1781186719974
2077248406,3,-0.165,9.759001,0.50595003,1781186719984
2077248417,3,-0.21300001,9.73095,0.45105,1781186719993
2077248427,3,-0.24795002,9.634951,0.411,1781186720003
2077248437,3,-0.26295,9.451051,0.34095,1781186720014
2077248447,3,-0.29595003,9.280951,0.25500003,1781186720022
2077248457,3,-0.31605002,9.205951,0.18105,1781186720034
2077248467,3,-0.36105,9.276,0.05595,1781186720045
2077248477,3,-0.37800002,9.538951,-0.13395001,1781186720055
2077248487,3,-0.32700002,9.838051,-0.393,1781186720065
2077248497,3,-0.18105,10.17105,-0.66300005,1781186720075
2077248507,3,0.079050004,10.530001,-1.0540501,1781186720085
2077248517,3,0.32505003,10.894051,-1.6279501,1781186720094
2077248527,3,0.531,11.349001,-2.01405,1781186720104
2077248537,3,0.74205005,11.895,-2.253,1781186720113
2077248547,3,0.81600004,12.642,-2.397,1781186720123
2077248558,3,0.97395,13.336051,-2.4109502,1781186720133
2077248568,3,1.041,14.092951,-2.16405,1781186720145
2077248578,3,1.07505,14.94795,-1.60905,1781186720155
2077248588,3,1.1920501,16.248001,-1.21605,1781186720165
2077248598,3,1.383,17.55195,-0.74505,1781186720174
2077248608,3,1.6129501,18.38805,-0.92205006,1781186720185
2077248618,3,1.6180501,19.068,-0.71400005,1781186720195
2077248628,3,1.7500501,19.060951,-0.33105,1781186720205
2077248638,3,2.02005,18.513,0.279,1781186720215
2077248648,3,2.3479502,17.737051,1.2889501,1781186720225
2077248658,3,2.5729501,16.53495,2.0050502,1781186720235
2077248668,3,2.11605,14.893051,1.5840001,1781186720247
2077248678,3,1.098,13.743001,1.8499501,1781186720256
2077248689,3,0.31995,12.261001,2.15595,1781186720264
2077248699,3,-0.25995,10.767,2.295,1781186720276
2077248709,3,-0.75405,9.441,2.3479502,1781186720285
2077248719,3,-0.984,8.554951,2.5420501,1781186720296
2077248729,3,-1.2610501,7.54995,2.50305,1781186720305
2077248739,3,-1.3879501,7.281,2.13,1781186720315
2077248749,3,-1.59405,7.0470004,2.3830502,1781186720327
2077248759,3,-1.6660501,7.044,2.4480002,1781186720337
2077248769,3,-1.59405,7.2910504,2.6130002,1781186720345
2077248779,3,-1.3740001,7.7119503,3.1519501,1781186720357
2077248789,3,-0.8880001,8.103001,3.4630501,1781186720367
2077248799,3,-0.11400001,8.280001,3.3600001,1781186720377
2077248809,3,0.61200005,8.24895,2.9509501,1781186720387
2077248820,3,1.01505,8.371051,2.52495,1781186720396
2077248830,3,1.35,8.433001,2.259,1781186720409
2077248840,3,1.74495,8.31105,1.98405,1781186720417
2077248850,3,2.0730002,8.184,1.77495,1781186720428
2077248860,3,2.2480502,7.93695,1.6320001,1781186720438
2077248870,3,2.319,7.4800506,1.39005,1781186720448
2077248880,3,2.39895,7.5730505,1.5499501,1781186720457
2077248890,3,2.46105,7.5469503,1.7560501,1781186720468
2077248900,3,2.4780002,7.3770003,1.5480001,1781186720478
2077248910,3,2.3029501,7.4440503,1.23195,1781186720488
2077248920,3,2.0389502,7.7029505,1.074,1781186720498
2077248930,3,1.9009501,8.004001,0.75495005,1781186720511
2077248940,3,1.86705,8.059051,0.372,1781186720519
2077248951,3,1.70895,8.20605,0.07305,1781186720526
2077248961,3,1.503,8.352,0.049050003,1781186720539
2077248971,3,1.1730001,8.668051,-0.04605,1781186720547
2077248981,3,0.91395,8.835,0.094950005,1781186720558
2077248991,3,0.69900006,9.03195,0.07305,1781186720568
2077249001,3,0.483,9.307051,0.022950001,1781186720578
2077249011,3,0.37500003,9.45495,0.006,1781186720589
2077249021,3,0.46605003,9.39105,-0.16095,1781186720598
2077249031,3,0.75795,9.22305,-0.31395,1781186720609
2077249041,3,0.98595005,9.06495,-0.54795,1781186720619
2077249051,3,1.09605,8.953051,-0.79995006,1781186720628
2077249061,3,1.01205,8.991,-0.98205006,1781186720637
2077249071,3,1.05495,8.72295,-0.95505005,1781186720649
2077249081,3,1.19895,8.44005,-1.15695,1781186720657
2077249092,3,1.3429501,8.191051,-1.401,1781186720669
2077249102,3,1.4980501,8.103001,-1.5850501,1781186720677
2077249112,3,1.6350001,8.052,-1.71,1781186720688
2077249122,3,1.8529501,8.059051,-1.8510001,1781186720698
2077249132,3,2.09205,8.13105,-2.052,1781186720709
2077249142,3,2.2360501,8.227051,-2.2789502,1781186720719
2077249152,3,2.262,8.15295,-2.4810002,1781186720730
2077249162,3,2.3050501,8.050051,-2.5450501,1781186720739
2077249172,3,2.3149502,7.9230003,-2.6190002,1781186720748
2077249182,3,2.367,7.8559504,-2.6190002,1781186720759
2077249192,3,2.39595,7.8180003,-2.5429502,1781186720769
2077249202,3,2.29095,8.00895,-2.60295,1781186720780
2077249212,3,2.0989501,8.43795,-2.6479502,1781186720790
2077249223,3,1.8430501,9.036,-2.6190002,1781186720800
2077249233,3,1.67505,9.369,-2.739,1781186720809
2077249243,3,1.52505,9.460051,-2.7529502,1781186720820
2077249253,3,1.29495,9.505951,-2.73195,1781186720830
2077249263,3,1.00695,9.4789505,-2.631,1781186720839
2077249273,3,0.69600004,9.489,-2.3749502,1781186720850
2077249283,3,0.36105,9.51,-2.112,1781186720861
2077249293,3,0.04695,9.63195,-1.8220501,1781186720870
2077249303,3,-0.22005,9.73995,-1.6620001,1781186720880
2077249313,3,-0.462,9.868951,-1.7860501,1781186720891
2077249323,3,-0.70095,10.01805,-2.052,1781186720900
2077249333,3,-0.89295006,10.26,-2.4060001,1781186720911
2077249343,3,-1.041,10.482,-2.7870002,1781186720921
2077249354,3,-1.18005,10.767,-3.0580502,1781186720931
2077249364,3,-1.2349501,10.87695,-3.1219501,1781186720941
2077249374,3,-1.2540001,10.810051,-3.0259502,1781186720951
2077249384,3,-1.2420001,10.698001,-3.00495,1781186720961
2077249394,3,-1.2210001,10.51605,-2.9520001,1781186720971
2077249404,3,-1.1700001,10.365001,-3.04605,1781186720981
2077249414,3,-1.0890001,10.23795,-3.1219501,1781186720991
2077249424,3,-0.98595005,10.05405,-3.1939502,1781186721001
2077249434,3,-0.873,9.979951,-3.3739502,1781186721011
2077249444,3,-0.744,9.9199505,-3.6150002,1781186721021
2077249454,3,-0.60795003,10.02,-3.8910003,1781186721032
2077249464,3,-0.54105,10.129951,-4.1400003,1781186721040
2077249474,3,-0.57900006,10.13805,-4.257,1781186721050
2077249484,3,-0.65295005,10.120951,-4.14195,1781186721061
2077249495,3,-0.77295005,10.080001,-4.0030503,1781186721070
2077249505,3,-0.88500005,10.0990505,-3.8500502,1781186721080
2077249515,3,-1.1080501,10.272,-3.62505,1781186721092
2077249525,3,-1.24395,10.458,-3.5700002,1781186721101
2077249535,3,-1.26795,10.582951,-3.6780002,1781186721111
2077249545,3,-1.113,10.47795,-3.726,1781186721123
2077249555,3,-0.90000004,10.267051,-3.8520002,1781186721132
2077249565,3,-0.73905003,10.000951,-3.8929503,1781186721143
2077249575,3,-0.60300004,9.655951,-3.7900503,1781186721152
2077249585,3,-0.48600003,9.328051,-3.5629501,1781186721162
2077249595,3,-0.354,9.063001,-3.2950501,1781186721171
2077249605,3,-0.17400001,8.847,-3.141,1781186721182
2077249615,3,0.033,8.69205,-3.18,1781186721193
2077249626,3,0.294,8.565001,-3.3930001,1781186721203
2077249636,3,0.6,8.44995,-3.69,1781186721213
2077249646,3,0.97905004,8.27505,-3.9750001,1781186721222
2077249656,3,1.28505,8.62905,-3.9169502,1781186721233
2077249666,3,1.503,8.62695,-3.9169502,1781186721243
2077249676,3,1.7380501,8.60805,-3.864,1781186721253
2077249686,3,1.93605,9.048,-3.8910003,1781186721263
2077249696,3,2.05395,9.508051,-4.03905,1781186721273
2077249706,3,2.1349502,9.68805,-4.1610003,1781186721282
2077249716,3,2.18505,9.525001,-4.18995,1781186721293
2077249726,3,2.1660001,9.168,-4.0800004,1781186721304
2077249736,3,2.07795,8.9740505,-3.8860502,1781186721314
2077249746,3,2.01105,8.92905,-3.6319501,1781186721324
2077249757,3,1.9150501,9.0,-3.5320501,1781186721334
2077249767,3,1.7329501,9.10095,-3.46005,1781186721344
2077249777,3,1.5370501,9.228001,-3.5530503,1781186721354
2077249787,3,1.28805,9.39795,-3.6990001,1781186721364
2077249797,3,1.06305,9.655951,-3.7570503,1781186721374
2077249807,3,0.79200006,9.915001,-3.7159503,1781186721384
2077249817,3,0.48795003,10.135051,-3.7210503,1781186721394
2077249827,3,0.15495001,10.35105,-3.7849503,1781186721404
2077249837,3,-0.19095,10.51605,-3.8359501,1781186721415
2077249847,3,-0.53295004,10.485001,-3.8740501,1781186721424
2077249857,3,-0.86100006,10.37895,-3.9100502,1781186721433
2077249867,3,-1.1080501,10.18305,-3.9580503,1781186721445
2077249877,3,-1.23705,10.02,-3.8790002,1781186721455
2077249888,3,-1.33305,9.927,-3.828,1781186721465
2077249898,3,-1.455,9.89805,-3.8089502,1781186721475
2077249908,3,-1.5289501,9.901051,-3.7690501,1781186721485
2077249918,3,-1.67505,9.86505,-3.76395,1781186721494
2077249928,3,-1.7329501,9.735001,-3.828,1781186721506
2077249938,3,-1.79295,9.646951,-3.8209503,1781186721515
2077249948,3,-1.845,9.70005,-3.9430501,1781186721525
2077249958,3,-1.9030501,9.91005,-4.0750504,1781186721536
2077249968,3,-1.8960001,10.05405,-4.24305,1781186721545
2077249978,3,-1.8169501,9.9529505,-4.2330003,1781186721555
2077249988,3,-1.5960001,9.640051,-4.14195,1781186721566
2077249998,3,-1.3230001,9.462001,-3.903,1781186721576
2077250008,3,-1.02705,9.417001,-3.6370502,1781186721586
2077250018,3,-0.72,9.24195,-3.5530503,1781186721596
2077250029,3,-0.37095,9.06705,-3.31395,1781186721607
2077250039,3,-0.09,9.012,-3.177,1781186721616
2077250049,3,0.049950004,9.09405,-3.1630502,1781186721626
2077250059,3,0.13800001,9.37605,-3.117,1781186721636
2077250069,3,0.22005,9.74295,-3.0580502,1781186721646
2077250079,3,0.282,9.8890505,-2.96895,1781186721657
2077250089,3,0.42600003,9.74505,-2.8519502,1781186721666
2077250099,3,0.555,9.55605,-2.7439501,1781186721676
2077250109,3,0.58395004,9.472051,-2.73705,1781186721687
2077250119,3,0.63405,9.469951,-2.868,1781186721696
2077250129,3,0.67695004,9.501,-3.0190501,1781186721707
2077250139,3,0.63195,9.405001,-3.2280002,1781186721717
2077250149,3,0.615,9.25395,-3.3709502,1781186721727
2077250160,3,0.62700003,9.130051,-3.3949502,1781186721737
2077250170,3,0.65295005,9.13395,-3.4140003,1781186721747
2077250180,3,0.72495,9.30195,-3.5050502,1781186721757
2077250190,3,0.82995003,9.537001,-3.6010501,1781186721768
2077250200,3,0.96405005,9.667951,-3.6700501,1781186721777
2077250210,3,1.04295,9.621,-3.6820502,1781186721787
2077250220,3,1.01205,9.5460005,-3.8430002,1781186721799
2077250230,3,0.94500005,9.484051,-3.9580503,1781186721808
2077250240,3,0.85395,9.57705,-3.9529502,1781186721818
2077250250,3,0.72495,9.71595,-3.8140502,1781186721827
2077250260,3,0.52605003,10.011001,-3.7159503,1781186721838
2077250270,3,0.25095,10.5400505,-3.6820502,1781186721848
2077250280,3,-0.045,11.15295,-3.69,1781186721858
2077250291,3,-0.40905002,11.725051,-3.5790002,1781186721866
2077250301,3,-0.744,12.064951,-3.4789503,1781186721878
2077250311,3,-1.05495,11.93595,-3.381,1781186721886
2077250321,3,-1.27995,11.371051,-3.0889502,1781186721898
2077250331,3,-1.3399501,10.597051,-2.91405,1781186721908
2077250341,3,-1.33305,9.799951,-2.8159502,1781186721918
2077250351,3,-1.24695,9.160951,-2.69595,1781186721928
2077250361,3,-1.23195,8.6629505,-2.7610502,1781186721939
2077250371,3,-1.2559501,8.19795,-2.8849502,1781186721949
2077250381,3,-1.25205,7.8580503,-2.94705,1781186721958
2077250391,3,-1.2250501,7.7430005,-3.0000002,1781186721968
2077250401,3,-1.074,7.8079505,-3.1369503,1781186721978
2077250411,3,-0.74895006,8.055,-3.2280002,1781186721989
2077250422,3,-0.47400004,8.433001,-3.25605,1781186721997
2077250432,3,-0.22200002,8.866051,-3.1290002,1781186722007
2077250442,3,-0.0139500005,9.20205,-2.8950002,1781186722019
2077250452,3,0.03795,9.472051,-2.62695,1781186722027
2077250462,3,-0.10695001,9.691951,-2.19105,1781186722038
2077250472,3,-0.33195,9.901051,-1.8169501,1781186722049
2077250482,3,-0.52395004,10.096951,-1.5319501,1781186722059
2077250492,3,-0.59805006,10.35105,-1.33605,1781186722071
2077250502,3,-0.58095,10.6050005,-1.50405,1781186722078
2077250512,3,-0.42600003,10.606951,-1.8010501,1781186722089
2077250522,3,-0.19800001,10.33605,-2.2459502,1781186722098
2077250532,3,-0.021000002,10.07505,-2.63595,1781186722108
2077250542,3,0.076050006,9.90795,-2.8950002,1781186722120
2077250552,3,0.105000004,9.7879505,-3.0000002,1781186722130
2077250563,3,0.10695001,9.634951,-2.8489501,1781186722139
2077250573,3,0.20505,9.264001,-2.70105,1781186722150
2077250583,3,0.28395,8.77095,-2.421,1781186722160
2077250593,3,0.37095,8.433001,-2.1690001,1781186722170
2077250603,3,0.52605003,8.445001,-2.1790502,1781186722180
2077250613,3,0.69900006,8.878051,-2.3850002,1781186722190
2077250623,3,0.82800007,9.40695,-2.6149502,1781186722200
2077250633,3,0.9480001,9.622951,-2.7970502,1781186722210
2077250643,3,0.99600005,9.273001,-2.71005,1781186722221
2077250653,3,0.82305,8.92905,-2.3149502,1781186722230
2077250663,3,0.62895006,9.07905,-1.8010501,1781186722239
2077250673,3,0.59595,9.496051,-1.56105,1781186722250
2077250683,3,0.52605003,10.33395,-1.899,1781186722261
2077250694,3,0.44505003,10.873051,-2.0970001,1781186722270
2077250704,3,0.342,10.99005,-2.229,1781186722280
2077250714,3,0.14295001,10.8820505,-2.14995,1781186722291
2077250724,3,0.00405,10.582951,-2.01795,1781186722300
2077250734,3,-0.00405,10.02795,-1.8580501,1781186722311
2077250744,3,0.01905,9.4150505,-1.8270001,1781186722321
2077250754,3,-0.01905,9.0390005,-1.8220501,1781186722331
2077250764,3,-0.010950001,9.148951,-1.8270001,1781186722341
2077250774,3,0.08295,9.609,-2.01105,1781186722351
2077250784,3,0.20805001,9.868951,-2.394,1781186722361
2077250794,3,0.23895001,10.083,-2.8639503,1781186722372
2077250804,3,0.16695,10.20495,-3.14595,1781186722382
2077250814,3,0.07395,10.111051,-3.0360003,1781186722391
2077250825,3,-0.07395,9.880951,-2.6100001,1781186722402
2077250835,3,-0.23895001,9.781051,-2.09295,1781186722412
2077250845,3,-0.22695,9.735001,-1.6660501,1781186722422
2077250855,3,-0.15795001,9.71895,-1.5469501,1781186722433
2077250865,3,0.01905,9.786,-1.7050501,1781186722442
2077250875,3,0.162,9.9529505,-2.0659502,1781186722452
2077250885,3,0.23400001,10.40295,-2.32695,1781186722462
2077250895,3,0.37800002,10.959001,-2.5740001,1781186722473
2077250905,3,0.507,11.304001,-2.8920002,1781186722481
2077250915,3,0.60495,10.983001,-3.14595,1781186722493
2077250925,3,0.61200005,10.090051,-2.9590502,1781186722503
2077250935,3,0.46395,9.328051,-2.62905,1781186722513
2077250945,3,0.411,8.890051,-2.1360002,1781186722522
2077250955,3,0.41595003,8.80605,-1.8409501,1781186722533
2077250966,3,0.42600003,9.03405,-2.0350502,1781186722543
2077250976,3,0.56700003,9.297001,-2.397,1781186722553
2077250986,3,0.61200005,9.501,-2.7850502,1781186722563
2077250996,3,0.47595003,9.7900505,-3.0499501,1781186722573
2077251006,3,0.32505003,9.949051,-3.0600002,1781186722583
2077251016,3,0.186,9.9199505,-2.7439501,1781186722592
2077251026,3,0.162,9.867001,-2.3059502,1781186722603
2077251036,3,0.26805001,9.74295,-2.0059502,1781186722613
2077251046,3,0.38700002,9.679951,-1.8840001,1781186722623
2077251056,3,0.52395004,9.658951,-1.9590001,1781186722634
2077251066,3,0.63600004,9.807,-2.232,1781186722644
2077251076,3,0.52395004,10.00395,-2.5429502,1781186722653
2077251086,3,0.29895002,10.120951,-2.7199502,1781186722664
2077251097,3,0.13800001,10.08495,-2.66205,1781186722673
2077251107,3,0.033,10.012951,-2.36295,1781186722684
2077251117,3,-0.033,9.987,-2.16405,1781186722693
2077251127,3,-0.049950004,9.955951,-2.1450002,1781186722703
2077251137,3,-0.08595,10.059,-2.5159502,1781186722713
2077251147,3,-0.0019500001,10.068001,-2.93805,1781186722725
2077251157,3,0.14805001,9.70905,-3.2970002,1781186722734
2077251167,3,0.27195,9.249001,-3.3930001,1781186722745
2077251177,3,0.37095,8.842051,-3.15105,1781186722754
2077251187,3,0.53295004,8.59305,-2.7220502,1781186722765
2077251197,3,0.67005,8.69205,-2.25495,1781186722775
2077251207,3,0.74205005,9.295051,-1.9249501,1781186722785
2077251217,3,0.82995003,9.934051,-2.0760002,1781186722794
2077251228,3,0.89295006,10.80105,-2.253,1781186722805
2077251238,3,0.94305,11.325001,-2.5429502,1781186722815
2077251248,3,0.82995003,10.96395,-2.907,1781186722824
2077251258,3,0.48105,10.420051,-2.8180501,1781186722835
2077251268,3,0.22500001,9.901051,-2.4810002,1781186722845
2077251278,3,-0.043050002,9.484051,-2.2789502,1781186722854
2077251288,3,-0.37800002,9.27105,-2.15295,1781186722865
2077251298,3,-0.60795003,9.229951,-2.26005,1781186722875
2077251308,3,-0.77805007,9.41205,-2.3800502,1781186722885
2077251318,3,-0.76095,9.834001,-2.5570502,1781186722895
2077251328,3,-0.57195,9.988951,-2.73705,1781186722904
2077251338,3,-0.34905002,9.76395,-2.8660502,1781186722915
2077251348,3,-0.21300001,9.382951,-2.87805,1781186722926
2077251359,3,0.034950003,9.003,-2.4420002,1781186722936
2077251369,3,0.31995,8.811001,-1.7890501,1781186722946
2077251379,3,0.56700003,8.7630005,-1.2859501,1781186722956
2077251389,3,0.77805007,8.91705,-0.93900007,1781186722966
2077251399,3,1.077,9.052951,-0.72795004,1781186722976
2077251409,3,1.51005,9.184951,-0.702,1781186722986
2077251419,3,1.932,9.040951,-0.74505,1781186722997
2077251429,3,2.22405,8.67,-0.81405,1781186723007
2077251439,3,2.47005,8.301001,-0.86895007,1781186723017
2077251449,3,2.6089501,7.9879503,-0.8880001,1781186723027
2077251459,3,2.6880002,7.79895,-0.855,1781186723037
2077251469,3,2.76195,8.016001,-0.57705003,1781186723046
2077251479,3,2.7499502,8.70405,-0.393,1781186723058
2077251489,3,2.7270002,9.667951,-0.50505,1781186723068
2077251500,3,2.69295,10.332001,-0.58695,1781186723077
2077251510,3,2.631,10.356001,-0.48405004,1781186723087
2077251520,3,2.21895,9.939,-0.42600003,1781186723097
2077251530,3,1.6609501,9.72795,-0.39795002,1781186723107
2077251540,3,1.1080501,10.0990505,-0.69405,1781186723116
2077251550,3,0.66300005,10.252951,-0.864,1781186723129
2077251560,3,0.37095,10.273951,-1.1689501,1781186723138
2077251570,3,0.24900001,10.047001,-1.5109501,1781186723149
2077251580,3,0.23400001,9.70695,-1.65495,1781186723158
2077251590,3,0.141,9.37605,-1.67595,1781186723168
2077251600,3,-0.021000002,9.14595,-1.5850501,1781186723178
2077251610,3,-0.25995,9.166051,-1.38405,1781186723187
2077251620,3,-0.46605003,9.331051,-1.1370001,1781186723198
2077251631,3,-0.50205004,9.634951,-0.8880001,1781186723206
2077251641,3,-0.32295,9.87195,-0.76905006,1781186723217
2077251651,3,-0.081,9.76395,-1.01505,1781186723226
2077251661,3,0.04695,9.771001,-1.2790501,1781186723237
2077251671,3,0.17400001,9.846001,-1.59,1781186723247
2077251681,3,0.141,9.781051,-1.82895,1781186723258
2077251691,3,0.10695001,9.76395,-1.84395,1781186723267
2077251701,3,0.17895001,9.799951,-1.63995,1781186723277
2077251711,3,0.30105,10.135051,-1.3770001,1781186723288
2077251721,3,0.33705002,10.614,-1.389,1781186723297
2077251731,3,0.35595003,10.92105,-1.6470001,1781186723307
2077251741,3,0.411,11.079,-1.76505,1781186723318
2077251751,3,0.684,10.759951,-1.5439501,1781186723329
2077251762,3,0.81600004,10.462951,-1.2040501,1781186723339
2077251772,3,0.897,10.35105,-0.86205006,1781186723349
2077251782,3,1.0309501,10.35105,-0.711,1781186723359
2077251792,3,1.19895,10.621051,-0.666,1781186723368
2077251802,3,1.3980001,11.016001,-0.88605005,1781186723379
2077251812,3,1.6560001,11.182051,-0.93105006,1781186723392
2077251822,3,1.79295,10.939951,-1.1230501,1781186723399
2077251832,3,1.55805,10.71,-1.22595,1781186723408
2077251842,3,1.2090001,10.777051,-1.0819501,1781186723419
2077251852,3,1.14195,10.66695,-0.74205005,1781186723429
2077251862,3,1.14195,10.356001,-0.47205,1781186723438
2077251872,3,0.99105006,10.06095,-0.34995002,1781186723448
2077251882,3,0.71805006,9.891001,-0.28995,1781186723458
2077251893,3,0.32295,10.08495,-0.23505001,1781186723469
2077251903,3,-0.01905,10.66695,-0.064950004,1781186723480
2077251913,3,-0.201,11.124001,-0.23205002,1781186723490
2077251923,3,-0.16695,10.759951,-0.27795002,1781186723500
2077251933,3,-0.10695001,10.144951,-0.36600003,1781186723510
2077251943,3,-0.23700002,9.84105,-0.24705002,1781186723520
2077251953,3,-0.39495003,9.793051,-0.24000001,1781186723530
2077251963,3,-0.51900005,9.963,-0.28995,1781186723540
2077251973,3,-0.50505,10.07295,-0.41400003,1781186723550
2077251983,3,-0.28005,9.951,-0.62505,1781186723560
2077251993,3,-0.22500001,9.762,-0.62505,1781186723570
2077252003,3,-0.23700002,9.795,-0.57000005,1781186723581
2077252013,3,-0.18405001,10.012951,-0.34005,1781186723591
2077252023,3,0.00705,10.19295,-0.22500001,1781186723601
2077252034,3,0.24105,9.970051,-0.45495003,1781186723611
2077252044,3,0.33900002,9.774,-0.69195,1781186723621
2077252054,3,0.40905002,9.793051,-0.86205006,1781186723631
2077252064,3,0.53595,10.023001,-1.0200001,1781186723639
2077252074,3,0.71805006,10.209001,-1.21395,1781186723650
2077252084,3,0.897,10.176001,-1.4460001,1781186723660
2077252094,3,1.0890001,10.04205,-1.4389501,1781186723671
2077252104,3,1.2280501,9.92895,-1.36695,1781186723681
2077252114,3,1.3450501,9.92895,-1.389,1781186723692
2077252124,3,1.35,10.07505,-1.473,1781186723702
2077252134,3,1.2420001,10.17405,-1.5640501,1781186723712
2077252144,3,1.1389501,10.068001,-1.57305,1781186723722
2077252154,3,0.98805004,9.901051,-1.36695,1781186723732
2077252165,3,0.76305,9.843,-1.14495,1781186723742
2077252175,3,0.55995005,9.975,-0.96300006,1781186723752
2077252185,3,0.54105,10.03905,-0.95295006,1781186723762
2077252195,3,0.555,9.73305,-1.113,1781186723771
2077252205,3,0.44700003,9.453,-1.3099501,1781186723782
2077252215,3,0.25095,9.3810005,-1.3549501,1781186723792
2077252225,3,0.040050004,9.7879505,-1.3980001,1781186723802
2077252235,3,-0.10005,10.243051,-1.3600501,1781186723813
2077252245,3,-0.094950005,10.26,-1.3579501,1781186723822
2077252255,3,-0.009000001,9.967951,-1.26705,1781186723832
2077252265,3,-0.00705,9.625051,-1.1590501,1781186723843
2077252275,3,-0.031050002,9.35505,-1.125,1781186723853
2077252285,3,-0.126,9.295051,-1.10595,1781186723861
2077252296,3,-0.20295002,9.372001,-1.1689501,1781186723873
2077252306,3,-0.27495003,9.36705,-1.2360001,1781186723883
2077252316,3,-0.17400001,9.229951,-1.1400001,1781186723893
2077252326,3,0.043050002,8.964001,-1.1209501,1781186723903
2077252336,3,0.08295,8.79,-1.056,1781186723913
2077252346,3,0.14805001,8.610001,-1.15695,1781186723923
2077252356,3,0.20805001,8.385,-1.3600501,1781186723933
2077252366,3,0.25605002,8.17905,-1.4989501,1781186723943
2077252376,3,0.27495003,8.043,-1.59,1781186723953
2077252386,3,0.27495003,8.17395,-1.6020001,1781186723963
2077252396,3,0.17400001,8.74695,-1.4100001,1781186723974
2077252406,3,0.20295002,9.313951,-1.15695,1781186723984
2077252416,3,0.30600002,9.658951,-1.02195,1781186723994
2077252426,3,0.42600003,9.63,-0.89295006,1781186724002
2077252437,3,0.39495003,9.618,-0.74505,1781186724014
2077252447,3,0.22200002,9.77595,-0.60300004,1781186724024
2077252457,3,0.25605002,10.114051,-0.57000005,1781186724034
2077252467,3,0.38505003,10.44705,-0.67305005,1781186724044
2077252477,3,0.63900006,10.554001,-0.94305,1781186724054
2077252487,3,0.97605,10.071,-1.3219501,1781186724063
2077252497,3,1.1080501,9.514951,-1.659,1781186724073
2077252507,3,1.06305,8.91195,-1.4580001,1781186724083
2077252517,3,0.984,8.27505,-1.33395,1781186724094
2077252527,3,0.78705,7.9999504,-1.08,1781186724103
2077252537,3,0.56700003,7.9830003,-0.87195003,1781186724115
2077252547,3,0.36105,8.28495,-0.59895,1781186724124
2077252557,3,0.35895002,8.529,-0.40995002,1781186724135
2077252568,3,0.55995005,8.81595,-0.39000002,1781186724145
2077252578,3,0.69600004,9.175051,-0.49605003,1781186724155
2077252588,3,0.80595005,9.57705,-0.61800003,1781186724165
2077252598,3,0.96405005,10.135051,-0.55605,1781186724175
2077252608,3,1.09395,10.81995,-0.546,1781186724185
2077252618,3,1.09605,11.524051,-0.402,1781186724195
2077252628,3,1.0699501,11.766001,-0.18405001,1781186724205
2077252638,3,1.0510501,11.706,0.066,1781186724216
2077252648,3,1.04595,11.656051,0.351,1781186724226
2077252658,3,1.16295,11.3230505,0.279,1781186724234
2077252668,3,1.4170501,9.937051,-0.03795,1781186724244
2077252678,3,1.14195,8.72505,-0.666,1781186724256
2077252688,3,0.96405005,7.8199506,-0.83100003,1781186724265
2077252699,3,0.897,8.184,-1.197,1781186724275
2077252709,3,0.804,9.846001,-1.6710001,1781186724285
2077252719,3,0.75795,10.93305,-1.9350001,1781186724295
2077252729,3,0.30105,11.269951,-1.863,1781186724304
2077252739,3,-0.08595,11.16195,-0.86895007,1781186724316
2077252749,3,-0.17400001,11.22,0.016050002,1781186724328
2077252759,3,-0.14595,11.737051,0.89895004,1781186724336
2077252769,3,-0.04695,13.185,1.404,1781186724346
2077252779,3,0.20295002,14.875951,1.179,1781186724357
2077252789,3,0.79395,15.691951,0.33195,1781186724367
2077252799,3,2.11395,14.64105,-0.43605003,1781186724377
2077252809,3,2.5729501,12.835951,-2.16195,1781186724387
2077252819,3,1.5130501,11.80395,-2.9590502,1781186724395
2077252830,3,0.675,10.375051,-3.18405,1781186724405
2077252840,3,0.20295002,9.10095,-2.607,1781186724417
2077252850,3,-0.078,7.8870006,-1.6980001,1781186724427
2077252860,3,-0.651,7.6120505,-1.2019501,1781186724438
2077252870,3,-1.17495,8.839951,-0.61305004,1781186724448
2077252880,3,-0.94500005,11.193001,-0.04605,1781186724458
2077252890,3,0.09,13.221001,0.13995,1781186724468
2077252900,3,1.39995,13.272,0.61905,1781186724481
2077252910,3,1.8379501,12.3810005,-0.76905006,1781186724489
