icm4n607_acc,iven_sense,2026-06-11_17-43-30.077_Active 10 Pro
imuTimestamp,accuracy(more=better),acc_x[m/s^2],acc_y[m/s^2],acc_z[m/s^2],utcTimestamp(millis)
2079541698,3,-3.15,3.7429502,8.7619505,1781189013274
2079541708,3,-3.1720502,3.7480502,8.769,1781189013285
2079541718,3,-3.18405,3.7669501,8.77095,1781189013294
2079541728,3,-3.1720502,3.8070002,8.769,1781189013305
2079541738,3,-3.1380002,3.8740501,8.75205,1781189013313
2079541748,3,-3.0979502,3.9250503,8.766001,1781189013324
2079541758,3,-3.07095,3.93195,8.7640505,1781189013334
2079541768,3,-3.07095,3.9180002,8.781,1781189013344
2079541778,3,-3.0619502,3.8940003,8.805,1781189013354
2079541788,3,-3.0660002,3.8740501,8.830951,1781189013364
2079541798,3,-3.0640502,3.8460002,8.778001,1781189013375
2079541808,3,-3.0280502,3.8239503,8.656051,1781189013385
2079541818,3,-2.9590502,3.86505,8.58195,1781189013395
2079541829,3,-2.9160001,3.8410501,8.448,1781189013405
2079541839,3,-2.868,3.8460002,8.38605,1781189013415
2079541849,3,-2.8840501,3.8239503,8.37405,1781189013426
2079541859,3,-2.904,3.8149502,8.356951,1781189013435
2079541869,3,-2.8990502,3.8410501,8.316,1781189013446
2079541879,3,-2.87295,3.8620503,8.23995,1781189013456
2079541889,3,-2.877,3.8860502,8.188951,1781189013466
2079541899,3,-2.8870502,3.9100502,8.14395,1781189013476
2079541909,3,-2.9160001,3.9150002,8.158051,1781189013486
2079541919,3,-2.94705,3.93405,8.200951,1781189013496
2079541929,3,-2.973,3.9220502,8.26095,1781189013506
2079541939,3,-3.0040503,3.9460502,8.352,1781189013516
2079541949,3,-3.0349503,3.9510002,8.42205,1781189013526
2079541959,3,-3.0499501,3.9970503,8.470051,1781189013536
2079541970,3,-3.0499501,4.05195,8.496,1781189013547
2079541980,3,-3.0589502,4.119,8.54595,1781189013557
2079541990,3,-3.07605,4.16895,8.616,1781189013567
2079542000,3,-3.1380002,4.18995,8.698951,1781189013577
2079542010,3,-3.1740003,4.1929502,8.793,1781189013587
2079542020,3,-3.186,4.17105,8.86905,1781189013597
2079542030,3,-3.1980002,4.1400003,8.89095,1781189013607
2079542040,3,-3.18105,4.119,8.91195,1781189013617
2079542050,3,-3.14805,4.0950003,8.86905,1781189013627
2079542060,3,-3.0930002,4.08495,8.806951,1781189013637
2079542070,3,-3.07395,4.04895,8.75205,1781189013647
2079542080,3,-3.0589502,3.9889503,8.71395,1781189013657
2079542090,3,-3.0570002,3.9390001,8.69505,1781189013667
2079542101,3,-3.05205,3.8820002,8.686951,1781189013677
2079542111,3,-3.078,3.8550003,8.661,1781189013688
2079542121,3,-3.081,3.795,8.653951,1781189013697
2079542131,3,-3.0930002,3.7669501,8.6320505,1781189013707
2079542141,3,-3.1189501,3.762,8.6320505,1781189013718
2079542151,3,-3.14295,3.7360501,8.665951,1781189013727
2079542161,3,-3.177,3.7210503,8.71905,1781189013737
2079542171,3,-3.2080503,3.7069502,8.74995,1781189013747
2079542181,3,-3.21495,3.7380002,8.769,1781189013756
2079542191,3,-3.2239501,3.7830002,8.757,1781189013767
2079542201,3,-3.2269502,3.8149502,8.74695,1781189013777
2079542211,3,-3.2290502,3.8389502,8.778001,1781189013789
2079542221,3,-3.2340002,3.8500502,8.814,1781189013799
2079542232,3,-3.25305,3.89595,8.88105,1781189013808
2079542242,3,-3.25095,3.9409502,8.91705,1781189013819
2079542252,3,-3.2340002,3.9870002,8.91705,1781189013828
2079542262,3,-3.2010002,4.00605,8.89095,1781189013839
2079542272,3,-3.1740003,4.032,8.86695,1781189013848
2079542282,3,-3.153,4.032,8.841001,1781189013858
2079542292,3,-3.1600502,3.999,8.838,1781189013868
2079542302,3,-3.1620002,3.9750001,8.833051,1781189013879
2079542312,3,-3.18105,3.9490502,8.83605,1781189013888
2079542322,3,-3.17895,3.9199502,8.817,1781189013899
2079542332,3,-3.1669502,3.8860502,8.788051,1781189013909
2079542342,3,-3.153,3.86505,8.73495,1781189013919
2079542352,3,-3.1600502,3.8460002,8.68305,1781189013930
2079542362,3,-3.1890001,3.8170502,8.67105,1781189013939
2079542373,3,-3.2320502,3.7879503,8.653951,1781189013950
2079542383,3,-3.28905,3.7549503,8.680051,1781189013960
2079542393,3,-3.3370502,3.7480502,8.68995,1781189013969
2079542403,3,-3.3589501,3.7429502,8.71605,1781189013980
2079542413,3,-3.38505,3.7740002,8.71605,1781189013990
2079542423,3,-3.4039502,3.798,8.7310505,1781189014000
2079542433,3,-3.4090502,3.8220003,8.769,1781189014010
2079542443,3,-3.426,3.8550003,8.766001,1781189014020
2079542453,3,-3.4020002,3.8580003,8.778001,1781189014030
2079542463,3,-3.38505,3.867,8.7949505,1781189014040
2079542473,3,-3.3730502,3.8700001,8.79,1781189014050
2079542483,3,-3.3370502,3.8770502,8.793,1781189014060
2079542493,3,-3.31095,3.8860502,8.745001,1781189014070
2079542504,3,-3.2680502,3.8890502,8.71605,1781189014081
2079542514,3,-3.2320502,3.89595,8.69505,1781189014091
2079542524,3,-3.2239501,3.8940003,8.68995,1781189014101
2079542534,3,-3.2290502,3.8700001,8.68305,1781189014111
2079542544,3,-3.2239501,3.8479502,8.685,1781189014122
2079542554,3,-3.22005,3.8149502,8.668051,1781189014132
2079542564,3,-3.2389503,3.7830002,8.653951,1781189014142
2079542574,3,-3.2410502,3.762,8.661,1781189014151
2079542584,3,-3.25095,3.7519503,8.673,1781189014161
2079542594,3,-3.2389503,3.73305,8.653951,1781189014171
2079542604,3,-3.21705,3.7480502,8.637,1781189014181
2079542614,3,-3.21,3.76395,8.60805,1781189014191
2079542624,3,-3.186,3.7710001,8.604,1781189014202
2079542635,3,-3.2080503,3.7480502,8.623051,1781189014212
2079542645,3,-3.213,3.759,8.668051,1781189014222
2079542655,3,-3.22005,3.7480502,8.709001,1781189014239
2079542665,3,-3.2340002,3.7480502,8.73795,1781189014243
2079542675,3,-3.21705,3.7740002,8.776051,1781189014253
2079542685,3,-3.2080503,3.7740002,8.742001,1781189014261
2079542695,3,-3.2010002,3.7789502,8.754001,1781189014271
2079542705,3,-3.2029502,3.7909503,8.773951,1781189014283
2079542715,3,-3.2029502,3.7879503,8.7619505,1781189014292
2079542725,3,-3.18405,3.798,8.766001,1781189014302
2079542735,3,-3.1360502,3.8220003,8.781,1781189014312
2079542745,3,-3.11205,3.86505,8.733001,1781189014324
2079542755,3,-3.07395,3.8839502,8.661,1781189014332
2079542766,3,-3.05205,3.9079502,8.5990505,1781189014344
2079542776,3,-3.0040503,3.93195,8.52705,1781189014352
2079542786,3,-3.0190501,3.9390001,8.458051,1781189014363
2079542796,3,-3.04305,3.92895,8.37405,1781189014374
2079542806,3,-2.9989502,3.9220502,8.326051,1781189014383
2079542816,3,-2.97495,3.93405,8.2560005,1781189014394
2079542826,3,-2.9490001,3.9150002,8.175,1781189014403
2079542836,3,-2.94195,3.8820002,8.12205,1781189014413
2079542846,3,-2.94,3.9559503,8.079,1781189014423
2079542856,3,-2.9250002,4.0009503,8.026951,1781189014434
2079542866,3,-2.9320502,4.05405,7.8930006,1781189014444
2079542876,3,-2.844,4.143,7.7130003,1781189014452
2079542886,3,-2.77395,4.2190504,7.4950504,1781189014467
2079542896,3,-2.77395,4.2649503,7.3159504,1781189014474
2079542907,3,-2.7889502,4.31505,7.2169504,1781189014484
2079542917,3,-2.8819501,4.296,7.1910005,1781189014494
2079542927,3,-3.081,4.1140504,7.4710503,1781189014503
2079542937,3,-3.3820503,3.97305,8.13,1781189014514
2079542947,3,-3.7339501,3.759,8.06505,1781189014523
2079542957,3,-4.14405,3.7140002,6.9349504,1781189014534
2079542967,3,-4.5679502,4.0080004,6.3910503,1781189014545
2079542977,3,-5.19,4.0279503,6.85305,1781189014554
2079542987,3,-5.4529505,4.0609503,7.2319503,1781189014564
2079542997,3,-5.6449504,4.269,7.0330505,1781189014574
2079543007,3,-5.71395,4.506,6.6720004,1781189014584
2079543017,3,-5.5950003,4.722,5.94105,1781189014594
2079543027,3,-5.3580003,4.9879503,5.2110004,1781189014604
2079543038,3,-5.2909503,5.4229503,4.59105,1781189014615
2079543048,3,-5.3770504,5.1649504,4.28205,1781189014625
2079543058,3,-5.262,5.3590503,4.122,1781189014635
2079543068,3,-5.379,5.6250005,4.04295,1781189014645
2079543078,3,-5.4100504,5.8570504,3.9490502,1781189014655
2079543088,3,-5.49405,5.8450503,3.8220003,1781189014665
2079543098,3,-5.6470504,5.7850504,3.6979501,1781189014675
2079543108,3,-5.83395,5.65605,3.48495,1781189014685
2079543118,3,-6.1050005,5.56995,3.32205,1781189014695
2079543128,3,-6.4110003,5.5480504,3.078,1781189014705
2079543138,3,-6.663,5.5189505,2.802,1781189014716
2079543148,3,-7.0189505,5.5260005,2.43105,1781189014726
2079543158,3,-7.5270004,5.49795,2.0320501,1781189014735
2079543169,3,-7.9600506,5.4229503,1.6459501,1781189014746
2079543179,3,-8.23305,5.23005,1.146,1781189014756
2079543189,3,-8.52,4.95195,0.753,1781189014766
2079543199,3,-8.925,4.8109503,0.44400004,1781189014777
2079543209,3,-9.32295,4.842,0.12105001,1781189014786
2079543219,3,-9.64305,4.83195,-0.34305,1781189014796
2079543229,3,-9.880051,4.58505,-0.63705003,1781189014806
2079543239,3,-9.91905,4.6140003,-0.79305005,1781189014816
2079543249,3,-9.765,4.7119503,-1.0390501,1781189014826
2079543259,3,-9.588,4.43895,-1.54005,1781189014837
2079543269,3,-9.483001,4.341,-1.8010501,1781189014847
2079543279,3,-9.303,4.506,-1.9009501,1781189014857
2079543289,3,-9.052051,4.45095,-2.20005,1781189014867
2079543299,3,-8.961,4.4539504,-2.45895,1781189014877
2079543310,3,-8.932051,4.6260004,-2.4180002,1781189014887
2079543320,3,-8.88,4.78695,-2.397,1781189014897
2079543330,3,-8.73795,4.99305,-2.35605,1781189014907
2079543340,3,-8.47995,5.0479503,-2.47305,1781189014917
2079543350,3,-8.16405,4.98495,-2.6580002,1781189014927
2079543360,3,-7.80705,4.8900003,-2.80395,1781189014937
2079543370,3,-7.4599504,4.7509503,-2.9020503,1781189014947
2079543380,3,-7.1340003,4.63605,-3.0259502,1781189014958
2079543390,3,-6.7920003,4.485,-3.2440503,1781189014967
2079543400,3,-6.4300504,4.341,-3.3379502,1781189014977
2079543410,3,-6.129,4.1280003,-3.4120502,1781189014987
2079543420,3,-5.892,3.96495,-3.4960501,1781189014998
2079543430,3,-5.59695,3.7500002,-3.55995,1781189015010
2079543441,3,-5.21595,3.5419502,-3.7399502,1781189015019
2079543451,3,-4.76595,3.2590501,-3.9769502,1781189015028
2079543461,3,-4.27995,2.907,-4.21605,1781189015037
2079543471,3,-3.801,2.4760501,-4.563,1781189015048
2079543481,3,-3.4780502,2.1049502,-4.77405,1781189015057
2079543491,3,-2.8990502,1.7320501,-4.6660504,1781189015068
2079543501,3,-2.08005,1.164,-4.959,1781189015077
2079543511,3,-1.36695,0.68805003,-5.60505,1781189015087
2079543521,3,-0.14295001,0.30195,-5.5620003,1781189015098
2079543531,3,1.7209501,-0.59205,-5.6860504,1781189015107
2079543541,3,3.7180502,-1.524,-5.169,1781189015120
2079543551,3,5.9869504,-2.1409502,-3.1369503,1781189015129
2079543561,3,8.785951,-2.7640502,-1.149,1781189015138
2079543572,3,11.23305,-3.2209501,0.49695003,1781189015150
2079543582,3,13.024051,-3.6139503,2.0700002,1781189015158
2079543592,3,13.623001,-3.82905,4.43295,1781189015168
2079543602,3,13.872001,-4.0230002,6.20205,1781189015178
2079543612,3,14.137051,-3.8389502,7.3489504,1781189015188
2079543622,3,14.69505,-3.7090502,7.8349504,1781189015198
2079543632,3,15.33705,-4.0129504,7.7580004,1781189015208
2079543642,3,15.649951,-4.50705,7.0330505,1781189015218
2079543652,3,15.63405,-4.9110003,5.7070503,1781189015228
2079543662,3,15.217051,-4.99695,4.28205,1781189015239
2079543672,3,14.901001,-5.1000004,3.147,1781189015252
2079543682,3,14.721001,-5.208,1.8760501,1781189015260
2079543692,3,14.39595,-5.091,0.87495005,1781189015269
2079543702,3,13.857,-4.83195,0.14295001,1781189015280
2079543713,3,13.242001,-4.5,-0.39495003,1781189015290
2079543723,3,12.780001,-4.2979503,-1.02495,1781189015300
2079543733,3,12.363001,-4.08495,-1.365,1781189015310
2079543743,3,11.86305,-3.66405,-1.5370501,1781189015320
2079543753,3,11.39805,-3.07695,-1.60905,1781189015330
2079543763,3,11.06295,-2.67,-1.7410501,1781189015340
2079543773,3,11.116051,-2.7970502,-1.9660501,1781189015350
2079543783,3,11.647051,-3.5779502,-2.1019502,1781189015360
2079543793,3,12.097051,-3.9079502,-2.1409502,1781189015370
2079543803,3,11.191951,-2.59605,-2.05005,1781189015380
2079543813,3,10.383,-1.7869501,-1.7689501,1781189015390
2079543823,3,9.93795,-1.5090001,-1.63995,1781189015400
2079543833,3,9.78705,-1.3939501,-1.59195,1781189015410
2079543844,3,9.825001,-1.3219501,-1.52295,1781189015421
2079543854,3,10.066951,-1.45395,-1.5439501,1781189015431
2079543864,3,10.390051,-1.71,-1.6330501,1781189015443
2079543874,3,10.717951,-1.8970501,-1.53495,1781189015451
2079543884,3,11.037001,-2.02605,-1.22595,1781189015462
2079543894,3,11.358001,-2.1679502,-0.80205005,1781189015471
2079543904,3,11.566051,-2.26305,-0.34695002,1781189015483
2079543914,3,11.785951,-2.3419502,0.049050003,1781189015491
2079543924,3,11.944051,-2.436,0.37695003,1781189015502
2079543934,3,12.010951,-2.53095,0.64095,1781189015511
2079543944,3,11.901001,-2.5890002,0.79095006,1781189015521
2079543954,3,11.745001,-2.62695,0.71505004,1781189015531
2079543964,3,11.592001,-2.66295,0.411,1781189015541
2079543975,3,11.571,-2.80905,-0.028950002,1781189015555
2079543985,3,11.66895,-3.0940502,-0.42405003,1781189015562
2079543995,3,11.712001,-3.38895,-0.67800003,1781189015572
2079544005,3,11.712001,-3.55605,-1.2859501,1781189015582
2079544015,3,11.69505,-3.8029501,-1.6350001,1781189015592
2079544025,3,11.58495,-4.01595,-1.899,1781189015602
2079544035,3,11.434051,-4.1119504,-2.11395,1781189015612
2079544045,3,11.3550005,-4.2390003,-2.2390501,1781189015622
2079544055,3,11.425051,-4.3440003,-2.4469502,1781189015632
2079544065,3,11.382001,-4.4089503,-2.5140002,1781189015642
2079544075,3,11.482051,-4.7410502,-2.66205,1781189015652
2079544085,3,11.66205,-4.8900003,-2.9520001,1781189015662
2079544095,3,11.53995,-4.8370504,-3.0240002,1781189015672
2079544106,3,11.190001,-4.41795,-3.0310502,1781189015682
2079544116,3,10.675051,-3.9300003,-2.8920002,1781189015693
2079544126,3,10.10805,-3.4080002,-2.6239502,1781189015702
2079544136,3,9.7560005,-3.0679502,-2.38995,1781189015714
2079544146,3,9.46905,-2.8500001,-2.16195,1781189015722
2079544156,3,9.198001,-2.7250502,-1.9230001,1781189015733
2079544166,3,9.01095,-2.73,-1.7340001,1781189015743
2079544176,3,8.95905,-2.83995,-1.57305,1781189015752
2079544186,3,8.962951,-2.56305,-1.3429501,1781189015764
2079544196,3,8.904,-2.3760002,-1.365,1781189015774
2079544206,3,8.83695,-2.1679502,-1.18005,1781189015784
2079544216,3,8.65695,-1.96395,-0.9889501,1781189015795
2079544226,3,8.48205,-1.6860001,-0.56295,1781189015802
2079544236,3,8.22105,-1.45905,-0.21105,1781189015813
2079544247,3,7.8619504,-1.2360001,0.09195001,1781189015824
2079544257,3,7.4500504,-1.047,0.37995002,1781189015834
2079544267,3,7.0669503,-0.85800004,0.55695003,1781189015844
2079544277,3,6.8110504,-0.717,0.528,1781189015853
2079544287,3,6.7939506,-0.642,0.30495003,1781189015864
2079544297,3,6.9430504,-0.66195005,0.042000003,1781189015874
2079544307,3,7.1940002,-0.77205,-0.21105,1781189015884
2079544317,3,7.45305,-0.906,-0.38805002,1781189015894
2079544327,3,7.7110505,-1.09305,-0.45705003,1781189015904
2079544337,3,7.9870505,-1.3420501,-0.56805,1781189015914
2079544347,3,8.191951,-1.5310501,-0.61305004,1781189015924
2079544357,3,8.47305,-1.6789501,-0.84795004,1781189015935
2079544367,3,8.71905,-1.8319501,-1.0699501,1781189015945
2079544378,3,9.03495,-2.0070002,-1.2910501,1781189015955
2079544388,3,9.34605,-2.25105,-1.5370501,1781189015964
2079544398,3,9.531,-2.4070501,-1.7689501,1781189015974
2079544408,3,9.63405,-2.53905,-1.94895,1781189015984
2079544418,3,9.73005,-2.62995,-2.157,1781189015995
2079544428,3,9.70995,-2.6200502,-2.1739502,1781189016005
2079544438,3,9.63405,-2.5189502,-2.02095,1781189016015
2079544448,3,9.579,-2.3830502,-1.8700501,1781189016025
2079544458,3,9.471001,-2.25405,-1.6500001,1781189016035
2079544468,3,9.375,-2.1409502,-1.3770001,1781189016046
2079544478,3,9.238951,-1.9210501,-1.14705,1781189016055
2079544488,3,9.088051,-1.6620001,-0.9670501,1781189016065
2079544498,3,9.066,-1.50405,-0.855,1781189016076
2079544509,3,9.126,-1.3750501,-0.864,1781189016086
2079544519,3,9.081,-1.2049501,-0.85995007,1781189016095
2079544529,3,8.97795,-1.014,-0.76605004,1781189016105
2079544539,3,8.83905,-0.82905006,-0.61095005,1781189016117
2079544549,3,8.619,-0.64005005,-0.55095005,1781189016126
2079544559,3,8.40795,-0.381,-0.44295,1781189016139
2079544569,3,8.48205,-0.25695002,-0.46905002,1781189016147
2079544579,3,8.677951,-0.21405001,-0.50505,1781189016158
2079544589,3,8.82195,-0.24705002,-0.51495004,1781189016166
2079544599,3,8.805,-0.19695,-0.66795003,1781189016176
2079544609,3,8.51805,0.076950006,-0.76095,1781189016186
2079544619,3,8.089951,0.42195,-0.80700004,1781189016197
2079544629,3,7.5079503,0.67605,-0.68700004,1781189016207
2079544639,3,7.0620003,0.657,-0.57705003,1781189016217
2079544650,3,7.3350005,-0.063,-0.88095003,1781189016227
2079544660,3,7.6150503,0.58995,-0.59595,1781189016238
2079544670,3,7.7260504,1.0900501,-0.52395004,1781189016248
2079544680,3,7.8450003,1.416,-0.68700004,1781189016257
2079544690,3,7.7140503,1.7700001,-0.642,1781189016267
2079544700,3,7.4929504,2.0640001,-0.381,1781189016277
2079544710,3,7.51695,2.28705,-0.26805001,1781189016287
2079544720,3,7.8640504,2.29395,-0.46695003,1781189016297
2079544730,3,8.451,1.9930501,-0.82095003,1781189016307
2079544740,3,8.961,1.72395,-1.17795,1781189016317
2079544750,3,9.379951,1.641,-1.5300001,1781189016327
2079544760,3,9.624001,1.7220001,-1.7020501,1781189016339
2079544770,3,9.745951,1.8180001,-1.8720001,1781189016348
2079544781,3,9.916051,1.84695,-2.1720002,1781189016359
2079544791,3,10.156051,1.7479501,-2.35605,1781189016369
2079544801,3,10.351951,1.554,-2.42295,1781189016377
2079544811,3,10.5390005,1.42005,-2.3850002,1781189016387
2079544821,3,10.788,1.332,-2.42295,1781189016399
2079544831,3,11.0460005,1.284,-2.4180002,1781189016408
2079544841,3,11.22795,1.24995,-2.2440002,1781189016419
2079544851,3,11.281051,1.15695,-2.06205,1781189016429
2079544861,3,11.343,0.92505,-1.8250501,1781189016439
2079544871,3,11.334001,0.75705004,-1.4680501,1781189016449
2079544881,3,11.311951,0.64500004,-1.19505,1781189016458
2079544891,3,11.293051,0.53205,-1.125,1781189016469
2079544901,3,11.214001,0.40500003,-0.97905004,1781189016478
2079544912,3,11.01,0.29505002,-0.864,1781189016489
2079544922,3,10.773001,0.17295001,-0.75195,1781189016498
2079544932,3,10.500001,0.034050003,-0.71805006,1781189016508
2079544942,3,10.1959505,-0.14400001,-0.69705003,1781189016518
2079544952,3,9.865951,-0.36195,-0.54795,1781189016528
2079544962,3,9.531,-0.48705003,-0.51195,1781189016538
2079544972,3,9.162001,-0.597,-0.18,1781189016549
2079544982,3,8.86005,-0.73800004,-0.043050002,1781189016558
2079544992,3,8.755051,-0.94395006,-0.16995001,1781189016569
2079545002,3,8.52795,-1.263,-0.30900002,1781189016579
2079545012,3,8.451,-1.3440001,-0.57000005,1781189016589
2079545022,3,8.39805,-1.5690001,-0.78795004,1781189016599
2079545032,3,8.455951,-1.8900001,-1.0870501,1781189016608
2079545042,3,8.53005,-2.19405,-1.248,1781189016619
2079545053,3,8.578051,-2.397,-1.4130001,1781189016630
2079545063,3,8.587951,-2.4480002,-1.5439501,1781189016640
2079545073,3,8.70705,-2.4400501,-1.6519501,1781189016650
2079545083,3,8.875051,-2.4019501,-1.67805,1781189016660
2079545093,3,9.165,-2.397,-1.674,1781189016670
2079545103,3,9.36795,-2.26605,-1.5799501,1781189016680
2079545113,3,9.459001,-2.08905,-1.4749501,1781189016690
2079545123,3,9.564,-1.8709501,-1.4100001,1781189016700
2079545133,3,9.77295,-1.725,-1.434,1781189016710
2079545143,3,9.92595,-1.65495,-1.50405,1781189016720
2079545153,3,10.021951,-1.53495,-1.57095,1781189016730
2079545163,3,10.014001,-1.3800001,-1.5970501,1781189016740
2079545173,3,9.852,-1.212,-1.5949501,1781189016750
2079545184,3,9.64605,-1.0710001,-1.542,1781189016761
2079545194,3,9.37005,-1.026,-1.4290501,1781189016771
2079545204,3,9.078,-0.9799501,-1.21605,1781189016781
2079545214,3,8.853001,-1.00905,-1.0200001,1781189016791
2079545224,3,8.67105,-1.03995,-0.79695004,1781189016801
2079545234,3,8.499001,-0.9990001,-0.67095006,1781189016811
2079545244,3,8.17605,-1.04205,-0.453,1781189016821
2079545254,3,7.7779503,-0.71895003,-0.57705003,1781189016831
2079545264,3,7.5529504,-0.73095006,-0.35895002,1781189016841
2079545274,3,8.00595,-1.047,-0.12705001,1781189016851
2079545284,3,8.39805,-1.3369501,-0.49605003,1781189016863
2079545294,3,8.0779505,-1.0489501,-0.40995002,1781189016871
2079545304,3,7.8090005,-0.975,-0.51000005,1781189016882
2079545315,3,7.6660504,-0.98505,-0.43095002,1781189016892
2079545325,3,7.5649505,-0.9799501,-0.46905002,1781189016902
2079545335,3,7.45305,-0.93495005,-0.53205,1781189016912
2079545345,3,7.4500504,-0.88395005,-0.56805,1781189016922
2079545355,3,7.5679502,-0.89895004,-0.69900006,1781189016932
2079545365,3,7.86705,-0.93000007,-0.90300006,1781189016942
2079545375,3,8.190001,-0.93000007,-1.0320001,1781189016952
2079545385,3,8.39805,-0.88695,-1.092,1781189016962
2079545395,3,8.44095,-0.82905006,-1.0819501,1781189016972
2079545405,3,8.470051,-0.76905006,-1.1040001,1781189016982
2079545415,3,8.590051,-0.76695,-1.1920501,1781189016992
2079545425,3,8.88195,-0.84105,-1.3600501,1781189017002
2079545435,3,9.076051,-1.014,-1.47,1781189017012
2079545446,3,9.24405,-1.0210501,-1.3620001,1781189017022
2079545456,3,10.351951,-1.1209501,-2.4019501,1781189017033
2079545466,3,11.41005,-1.2940501,-2.5189502,1781189017043
2079545476,3,12.16905,-1.53495,-2.4420002,1781189017052
2079545486,3,12.535951,-1.8559501,-2.2030501,1781189017063
2079545496,3,12.448951,-1.8900001,-1.8049501,1781189017073
2079545506,3,12.16905,-1.794,-1.4490001,1781189017083
2079545516,3,11.844001,-1.71,-1.26195,1781189017094
2079545526,3,11.595,-1.5949501,-1.116,1781189017103
2079545536,3,11.559001,-1.6480501,-1.03695,1781189017115
2079545546,3,11.821951,-1.84905,-0.97005004,1781189017123
2079545556,3,12.318001,-2.1649501,-0.96300006,1781189017134
2079545566,3,12.727051,-2.4070501,-0.89595,1781189017144
2079545576,3,12.804001,-2.57205,-0.771,1781189017154
2079545587,3,12.47595,-2.5819502,-0.61095005,1781189017164
2079545597,3,11.844001,-2.4049501,-0.47895002,1781189017174
2079545607,3,11.167951,-2.11995,-0.43305,1781189017185
2079545617,3,10.608001,-1.93305,-0.49605003,1781189017194
2079545627,3,10.062,-1.81305,-0.55995005,1781189017204
2079545637,3,9.448951,-1.677,-0.47400004,1781189017214
2079545647,3,8.84805,-1.4970001,-0.28695002,1781189017226
2079545657,3,8.343,-1.34595,-0.27105,1781189017237
2079545667,3,7.9510503,-1.263,-0.26295,1781189017244
2079545677,3,7.6830006,-1.2360001,-0.21795002,1781189017254
2079545687,3,7.5049505,-1.2790501,-0.21300001,1781189017264
2079545697,3,7.3999505,-1.3420501,-0.26805001,1781189017275
2079545707,3,7.3690505,-1.4490001,-0.36195,1781189017285
2079545718,3,7.4550004,-1.6170001,-0.50100005,1781189017295
2079545728,3,7.5480003,-1.7989501,-0.61305004,1781189017305
2079545738,3,7.6060505,-1.9810501,-0.711,1781189017315
2079545748,3,7.6729503,-2.1720002,-0.79695004,1781189017325
2079545758,3,7.73295,-2.35695,-0.8880001,1781189017335
2079545768,3,7.7710505,-2.5429502,-0.99600005,1781189017345
2079545778,3,7.8960004,-2.7469501,-1.09695,1781189017355
2079545788,3,8.089951,-2.9940002,-1.248,1781189017365
2079545798,3,8.25,-3.2040002,-1.3549501,1781189017375
2079545808,3,8.415,-3.31395,-1.41495,1781189017385
2079545818,3,8.590051,-3.3600001,-1.45305,1781189017395
2079545828,3,8.644951,-3.3049502,-1.434,1781189017406
2079545838,3,8.643001,-3.14895,-1.38195,1781189017416
2079545849,3,8.614051,-3.0250502,-1.281,1781189017426
2079545859,3,8.475,-2.86905,-1.164,1781189017435
2079545869,3,8.283,-2.6419501,-1.056,1781189017446
2079545879,3,8.082001,-2.364,-0.91995007,1781189017458
2079545889,3,7.89795,-2.11695,-0.81405,1781189017466
2079545899,3,7.7179503,-1.866,-0.69705003,1781189017476
2079545909,3,7.5600004,-1.65795,-0.59595,1781189017486
2079545919,3,7.51695,-1.5310501,-0.49305,1781189017497
2079545929,3,7.6780505,-1.4970001,-0.43095002,1781189017506
2079545939,3,7.872,-1.4950501,-0.38595003,1781189017516
2079545949,3,8.07495,-1.50705,-0.37800002,1781189017526
2079545959,3,8.20395,-1.4680501,-0.39000002,1781189017536
2079545969,3,8.2240505,-1.38195,-0.37395,1781189017547
2079545979,3,8.154,-1.27695,-0.34695002,1781189017557
2079545990,3,8.05395,-1.164,-0.34995002,1781189017567
2079546000,3,7.9219503,-1.0540501,-0.31395,1781189017577
2079546010,3,7.80495,-0.94905007,-0.26805001,1781189017587
2079546020,3,7.8409505,-0.88695,-0.18900001,1781189017597
2079546030,3,8.0460005,-0.915,-0.18900001,1781189017607
2079546040,3,8.331,-0.99195004,-0.21300001,1781189017617
2079546050,3,8.54895,-1.07595,-0.20805001,1781189017627
2079546060,3,8.76,-1.18605,-0.22500001,1781189017637
2079546070,3,8.997001,-1.3080001,-0.25605002,1781189017647
2079546080,3,9.21,-1.4089501,-0.27105,1781189017657
2079546090,3,9.44505,-1.49205,-0.34500003,1781189017667
2079546100,3,9.694051,-1.5690001,-0.393,1781189017678
2079546110,3,9.94995,-1.6360501,-0.45000002,1781189017688
2079546121,3,10.1959505,-1.7050501,-0.49305,1781189017697
2079546131,3,10.483951,-1.8010501,-0.59595,1781189017707
2079546141,3,10.75695,-1.899,-0.73005,1781189017717
2079546151,3,11.02995,-1.9900501,-0.89100003,1781189017729
2079546161,3,11.24295,-2.04795,-1.056,1781189017738
2079546171,3,11.39595,-2.1049502,-1.2090001,1781189017749
2079546181,3,11.583,-2.1340501,-1.37205,1781189017757
2079546191,3,11.71905,-2.1460502,-1.5280501,1781189017769
2079546201,3,11.677951,-2.12205,-1.56105,1781189017779
2079546211,3,11.53995,-2.0959501,-1.49205,1781189017787
2079546221,3,11.413051,-2.0380502,-1.3480501,1781189017798
2079546231,3,11.34105,-1.983,-1.2,1781189017809
2079546241,3,11.314951,-1.9620001,-1.1230501,1781189017819
2079546252,3,11.403001,-1.9470001,-1.1520001,1781189017829
2079546262,3,11.532001,-1.9570501,-1.30005,1781189017839
2079546272,3,11.595,-1.9570501,-1.45095,1781189017849
2079546282,3,11.556001,-1.9590001,-1.57305,1781189017859
2079546292,3,11.319,-1.9350001,-1.57095,1781189017870
2079546302,3,10.917001,-1.8420001,-1.4580001,1781189017878
2079546312,3,10.362,-1.7080501,-1.21605,1781189017889
2079546322,3,9.79395,-1.62405,-0.864,1781189017900
2079546332,3,9.25605,-1.6980001,-0.606,1781189017908
2079546342,3,8.767051,-1.8079501,-0.46005002,1781189017920
2079546352,3,8.394,-1.8730501,-0.49305,1781189017930
2079546362,3,8.161051,-1.96395,-0.70395005,1781189017939
2079546372,3,8.11095,-1.8400501,-0.915,1781189017948
2079546382,3,8.134951,-1.79595,-1.0200001,1781189017960
2079546393,3,8.08695,-2.259,-0.89295006,1781189017970
2079546403,3,7.9840503,-2.7229502,-1.18005,1781189017980
2079546413,3,7.9990506,-2.8950002,-1.5079501,1781189017990
2079546423,3,8.266951,-2.86905,-1.7500501,1781189018000
2079546433,3,8.608951,-2.7210002,-2.02095,1781189018010
2079546443,3,8.84595,-2.3380501,-2.08995,1781189018020
2079546453,3,8.944051,-2.0410502,-2.253,1781189018030
2079546463,3,8.99205,-1.84905,-1.8079501,1781189018040
2079546473,3,8.962951,-1.64295,-1.365,1781189018050
2079546483,3,8.85795,-1.6819501,-1.0819501,1781189018060
2079546493,3,8.6980505,-1.7560501,-0.78795004,1781189018071
2079546503,3,8.54205,-1.6819501,-0.72105,1781189018080
2079546513,3,8.455951,-1.4800501,-0.72300005,1781189018091
2079546524,3,8.437051,-1.31505,-0.76095,1781189018101
2079546534,3,8.437051,-1.26495,-0.86205006,1781189018110
2079546544,3,8.394,-1.3080001,-0.9480001,1781189018120
2079546554,3,8.24295,-1.31505,-0.915,1781189018132
2079546564,3,8.149051,-1.2790501,-0.77595,1781189018141
2079546574,3,8.01795,-1.2220501,-0.558,1781189018153
2079546584,3,7.8550506,-1.14495,-0.29205,1781189018161
2079546594,3,7.6849504,-1.0330501,-0.003,1781189018171
2079546604,3,7.5769506,-0.94905007,0.21900001,1781189018181
2079546614,3,7.5049505,-0.882,0.41505003,1781189018191
2079546624,3,7.5100503,-0.85095006,0.47505003,1781189018201
2079546634,3,7.58895,-0.87705004,0.45405003,1781189018211
2079546644,3,7.7299504,-0.94200003,0.36495003,1781189018222
2079546655,3,7.9480505,-0.96300006,0.22200002,1781189018232
2079546665,3,8.20395,-0.97800004,0.12795001,1781189018242
2079546675,3,8.475,-0.9799501,0.08295,1781189018252
2079546685,3,8.647051,-1.014,0.010950001,1781189018262
2079546695,3,8.6980505,-1.07595,-0.048,1781189018272
2079546705,3,8.767051,-1.107,-0.10305001,1781189018282
2079546715,3,8.752951,-1.131,-0.19605,1781189018291
2079546725,3,8.647051,-1.1209501,-0.28995,1781189018303
2079546735,3,8.568001,-1.1020501,-0.38295,1781189018313
2079546745,3,8.523001,-1.0830001,-0.47700003,1781189018322
2079546755,3,8.580001,-1.0690501,-0.52395004,1781189018332
2079546765,3,8.71905,-1.10895,-0.615,1781189018342
2079546775,3,8.96805,-1.23105,-0.76095,1781189018352
2079546786,3,9.303,-1.3440001,-0.9480001,1781189018362
2079546796,3,9.712951,-1.488,-1.1659501,1781189018373
2079546806,3,10.125001,-1.6189501,-1.389,1781189018383
2079546816,3,10.4740505,-1.6980001,-1.52505,1781189018393
2079546826,3,10.692,-1.7080501,-1.59,1781189018402
2079546836,3,10.752001,-1.69305,-1.5679501,1781189018416
2079546846,3,10.761001,-1.6699501,-1.5109501,1781189018423
2079546856,3,10.9150505,-1.7200501,-1.4629501,1781189018433
2079546866,3,11.167951,-1.8180001,-1.386,1781189018443
2079546876,3,11.427001,-1.9519501,-1.26705,1781189018453
2079546886,3,11.784,-2.1360002,-1.164,1781189018466
2079546896,3,12.253051,-2.3689501,-1.1539501,1781189018473
2079546906,3,12.77295,-2.59605,-1.245,1781189018484
2079546916,3,13.09605,-2.742,-1.33605,1781189018494
2079546927,3,13.042951,-2.73495,-1.3480501,1781189018503
2079546937,3,12.69795,-2.59395,-1.2790501,1781189018513
2079546947,3,12.186001,-2.3380501,-1.14195,1781189018523
2079546957,3,11.578051,-2.0719502,-0.95100003,1781189018534
2079546967,3,10.93095,-1.7989501,-0.67305005,1781189018544
2079546977,3,10.354051,-1.605,-0.35895002,1781189018554
2079546987,3,9.892051,-1.47105,-0.094050005,1781189018564
2079546997,3,9.5449505,-1.4089501,0.14295001,1781189018574
2079547007,3,9.222,-1.4440501,0.303,1781189018584
2079547017,3,8.937,-1.5000001,0.384,1781189018594
2079547027,3,8.710051,-1.521,0.42000002,1781189018604
2079547037,3,8.559,-1.54305,0.43695003,1781189018614
2079547047,3,8.475,-1.60695,0.40305,1781189018624
2079547058,3,8.41005,-1.6720501,0.32205,1781189018635
2079547068,3,8.302951,-1.7170501,0.21705002,1781189018645
2079547078,3,8.15205,-1.7320501,0.11400001,1781189018655
2079547088,3,7.9339504,-1.7080501,0.034950003,1781189018665
2079547098,3,7.728,-1.6290001,-0.058050003,1781189018675
2079547108,3,7.6369505,-1.58595,-0.16305001,1781189018685
2079547118,3,7.6750503,-1.6459501,-0.31605002,1781189018695
2079547128,3,7.8139505,-1.7730001,-0.53205,1781189018705
2079547138,3,8.00595,-1.9570501,-0.75405,1781189018715
2079547148,3,8.20395,-2.16,-0.98700005,1781189018725
2079547158,3,8.394,-2.31795,-1.197,1781189018736
2079547168,3,8.604,-2.46405,-1.3050001,1781189018746
2079547178,3,8.785951,-2.5549502,-1.36995,1781189018756
2079547189,3,8.908051,-2.63895,-1.33605,1781189018769
2079547199,3,8.94705,-2.6460001,-1.2589501,1781189018775
2079547209,3,8.917951,-2.56005,-1.1659501,1781189018786
2079547219,3,8.779051,-2.4400501,-1.08,1781189018796
2079547229,3,8.56095,-2.2780502,-0.97200006,1781189018806
2079547239,3,8.38395,-2.15595,-0.91005003,1781189018816
2079547249,3,8.283,-2.0719502,-0.93600005,1781189018828
2079547259,3,8.248051,-2.05005,-0.9889501,1781189018837
2079547269,3,8.274,-2.06205,-1.0870501,1781189018846
2079547279,3,8.32695,-2.1010501,-1.149,1781189018856
2079547289,3,8.37195,-2.11695,-1.1850001,1781189018866
2079547299,3,8.40795,-2.15295,-1.1689501,1781189018876
2079547309,3,8.367001,-2.1049502,-1.09905,1781189018886
2079547319,3,8.254951,-2.01195,-0.97905004,1781189018897
2079547330,3,8.121,-1.8970501,-0.81900007,1781189018907
2079547340,3,8.03205,-1.8370501,-0.68205005,1781189018917
2079547350,3,7.9290004,-1.6980001,-0.58395004,1781189018927
2079547360,3,7.872,-1.55505,-0.54105,1781189018937
2079547370,3,7.872,-1.45605,-0.57495004,1781189018947
2079547380,3,7.9939504,-1.38495,-0.65595,1781189018957
2079547390,3,8.18505,-1.34895,-0.75405,1781189018967
2079547400,3,8.427,-1.36995,-0.88095003,1781189018977
2079547410,3,8.575951,-1.3630501,-0.915,1781189018987
2079547420,3,8.575951,-1.2859501,-0.87405,1781189018997
2079547430,3,8.53005,-1.1520001,-0.83805007,1781189019007
2079547440,3,8.46105,-1.0489501,-0.83595,1781189019017
2079547450,3,8.403001,-0.95400006,-0.86700004,1781189019028
2079547461,3,8.36505,-0.88395005,-0.9289501,1781189019039
2079547471,3,8.413051,-0.85995007,-1.0390501,1781189019049
2079547481,3,8.499001,-0.906,-1.1179501,1781189019057
2079547491,3,8.571,-0.92505,-1.1730001,1781189019069
2079547501,3,8.647051,-0.94395006,-1.22595,1781189019079
2079547511,3,8.746051,-0.98205006,-1.3069501,1781189019088
2079547521,3,8.832001,-1.014,-1.338,1781189019097
2079547531,3,8.899051,-1.0210501,-1.365,1781189019109
2079547541,3,8.97105,-1.0330501,-1.42005,1781189019117
2079547551,3,9.082951,-1.0830001,-1.506,1781189019129
2079547561,3,9.214951,-1.16205,-1.56105,1781189019139
2079547571,3,9.351001,-1.2580501,-1.623,1781189019148
2079547581,3,9.46605,-1.3729501,-1.6639501,1781189019159
2079547592,3,9.63405,-1.473,-1.6860001,1781189019169
2079547602,3,9.864,-1.5979501,-1.69305,1781189019178
2079547612,3,9.957001,-1.64295,-1.59,1781189019189
2079547622,3,9.96405,-1.6789501,-1.4080501,1781189019199
2079547632,3,9.997951,-1.7149501,-1.23105,1781189019208
2079547642,3,10.042951,-1.761,-1.0510501,1781189019218
2079547652,3,10.149,-1.8349501,-0.88605005,1781189019228
2079547662,3,10.25895,-1.9279501,-0.75195,1781189019240
2079547672,3,10.43595,-2.02395,-0.58695,1781189019249
2079547682,3,10.69005,-2.1100502,-0.50100005,1781189019259
2079547692,3,11.01795,-2.1649501,-0.48900002,1781189019269
2079547702,3,11.314951,-2.232,-0.56805,1781189019279
2079547712,3,11.57295,-2.2750502,-0.71805006,1781189019289
2079547722,3,11.722051,-2.28495,-0.8880001,1781189019300
2079547733,3,11.712001,-2.25105,-0.99600005,1781189019311
2079547743,3,11.461051,-2.1340501,-1.0890001,1781189019322
2079547753,3,10.917001,-1.96395,-1.0870501,1781189019330
2079547763,3,10.198951,-1.76505,-1.0180501,1781189019340
2079547773,3,9.555,-1.6360501,-0.92205006,1781189019350
2079547783,3,9.19095,-1.6360501,-0.87900007,1781189019361
2079547793,3,9.00405,-1.7080501,-0.9289501,1781189019371
2079547803,3,8.916,-1.8199501,-0.9289501,1781189019380
2079547813,3,8.98005,-2.0020502,-0.91200006,1781189019391
2079547823,3,9.102,-2.2030501,-0.84300005,1781189019401
2079547833,3,9.19305,-2.328,-0.77595,1781189019411
2079547843,3,9.217051,-2.33295,-0.735,1781189019421
2079547853,3,9.073951,-2.23005,-0.72105,1781189019431
2079547864,3,8.868,-2.127,-0.735,1781189019441
2079547874,3,8.724,-2.05695,-0.83295006,1781189019451
2079547884,3,8.63805,-2.0380502,-0.9580501,1781189019462
2079547894,3,8.6310005,-2.1340501,-1.09905,1781189019471
2079547904,3,8.688001,-2.24895,-1.2589501,1781189019480
2079547914,3,8.743051,-2.3160002,-1.36995,1781189019492
2079547924,3,8.767051,-2.3500502,-1.45305,1781189019502
2079547934,3,8.75805,-2.3689501,-1.49205,1781189019511
2079547944,3,8.66205,-2.3830502,-1.473,1781189019522
2079547954,3,8.5990505,-2.397,-1.4269501,1781189019532
2079547964,3,8.6980505,-2.457,-1.36695,1781189019541
2079547974,3,9.057,-2.59395,-1.30005,1781189019553
2079547984,3,9.460951,-2.742,-1.28295,1781189019563
2079547995,3,9.792001,-2.81205,-1.29495,1781189019572
2079548005,3,9.934951,-2.742,-1.2400501,1781189019582
2079548015,3,9.90705,-2.60295,-1.161,1781189019592
2079548025,3,9.71805,-2.3830502,-1.0339501,1781189019602
2079548035,3,9.45705,-2.15595,-0.864,1781189019613
2079548045,3,9.265051,-1.9660501,-0.702,1781189019623
2079548055,3,9.094951,-1.81095,-0.50295,1781189019633
2079548065,3,8.916,-1.6890001,-0.29895002,1781189019642
2079548075,3,8.70705,-1.58595,-0.18195,1781189019652
2079548085,3,8.51595,-1.4800501,-0.10095,1781189019662
2079548095,3,8.403001,-1.4110501,-0.048,1781189019672
2079548105,3,8.401051,-1.3770001,-0.01905,1781189019682
2079548115,3,8.475,-1.3300501,-0.0049500004,1781189019693
2079548126,3,8.592,-1.2550501,0.006,1781189019702
2079548136,3,8.688001,-1.167,0.00405,1781189019713
2079548146,3,8.781,-1.107,0.01305,1781189019723
2079548156,3,8.929951,-1.0519501,-0.034050003,1781189019733
2079548166,3,9.02295,-1.02795,-0.109950006,1781189019743
2079548176,3,9.088051,-1.0159501,-0.18405001,1781189019752
2079548186,3,9.069,-1.0180501,-0.24900001,1781189019763
2079548196,3,9.0379505,-1.0159501,-0.33495003,1781189019773
2079548206,3,9.057,-1.02795,-0.50805,1781189019783
2079548216,3,9.117001,-1.06605,-0.651,1781189019793
2079548226,3,9.361051,-1.095,-0.84000003,1781189019803
2079548236,3,9.636001,-1.15695,-1.0489501,1781189019813
2079548246,3,9.80595,-1.2790501,-1.1920501,1781189019823
2079548256,3,9.76305,-1.38195,-1.26405,1781189019834
2079548267,3,9.62895,-1.416,-1.2859501,1781189019844
2079548277,3,9.44505,-1.401,-1.26705,1781189019853
2079548287,3,9.23595,-1.389,-1.26405,1781189019864
2079548297,3,9.09,-1.389,-1.24995,1781189019874
2079548307,3,8.985001,-1.4130001,-1.21905,1781189019884
2079548317,3,8.865001,-1.41795,-1.161,1781189019894
2079548327,3,8.797951,-1.4280001,-1.15695,1781189019904
2079548337,3,8.764951,-1.4250001,-1.10895,1781189019914
2079548347,3,8.793,-1.4250001,-1.0870501,1781189019924
2079548357,3,8.853001,-1.452,-1.04595,1781189019934
2079548367,3,8.901,-1.4640001,-0.90495,1781189019944
2079548377,3,8.941951,-1.4680501,-0.84495,1781189019954
2079548387,3,8.949,-1.488,-0.78495,1781189019964
2079548398,3,9.00195,-1.4970001,-0.84000003,1781189019975
2079548408,3,9.042001,-1.5000001,-0.85695004,1781189019985
2079548418,3,9.057,-1.5310501,-0.81705004,1781189019995
2079548428,3,9.076051,-1.55505,-0.70605004,1781189020005
2079548438,3,9.064051,-1.6140001,-0.56505,1781189020015
2079548448,3,9.082951,-1.5949501,-0.42600003,1781189020025
2079548458,3,9.16695,-1.6480501,-0.34695002,1781189020035
2079548468,3,9.30795,-1.6500001,-0.33495003,1781189020046
2079548478,3,9.493051,-1.6500001,-0.44805002,1781189020055
2079548488,3,9.65505,-1.59105,-0.56505,1781189020065
2079548498,3,9.694051,-1.4800501,-0.58905005,1781189020076
2079548508,3,9.571951,-1.3560001,-0.453,1781189020086
2079548518,3,9.379951,-1.27005,-0.24705002,1781189020095
2079548529,3,9.21195,-1.2270001,-0.024,1781189020106
2079548539,3,9.186001,-1.24605,-0.00705,1781189020117
2079548549,3,9.258,-1.3300501,-0.17505,1781189020127
2079548559,3,9.411,-1.4110501,-0.45000002,1781189020137
2079548569,3,9.612,-1.4779501,-0.771,1781189020148
2079548579,3,9.753,-1.5160501,-1.0489501,1781189020157
2079548589,3,9.715051,-1.46595,-1.1370001,1781189020166
2079548599,3,9.571951,-1.3420501,-1.07805,1781189020176
2079548609,3,9.48495,-1.2430501,-0.96495,1781189020186
2079548619,3,9.507001,-1.18095,-0.87195003,1781189020196
2079548629,3,9.526051,-1.131,-0.74205005,1781189020207
2079548639,3,9.516001,-1.08105,-0.64905006,1781189020217
2079548649,3,9.507001,-1.0710001,-0.615,1781189020227
2079548659,3,9.50895,-1.07595,-0.63495004,1781189020237
2079548670,3,9.531,-1.1050501,-0.72105,1781189020247
2079548680,3,9.526051,-1.131,-0.80700004,1781189020257
2079548690,3,9.460951,-1.15695,-0.84300005,1781189020267
2079548700,3,9.27495,-1.128,-0.77805007,1781189020277
2079548710,3,9.01605,-1.0710001,-0.68205005,1781189020287
2079548720,3,8.81505,-1.03005,-0.642,1781189020298
2079548730,3,8.7289505,-1.03995,-0.63195,1781189020309
2079548740,3,8.776951,-1.09305,-0.65595,1781189020318
2079548750,3,8.974951,-1.2270001,-0.69405,1781189020327
2079548760,3,9.306001,-1.38705,-0.79305005,1781189020337
2079548770,3,9.612,-1.50405,-0.93405,1781189020347
2079548780,3,9.945001,-1.593,-0.96300006,1781189020357
2079548790,3,10.290001,-1.69305,-1.1230501,1781189020370
2079548801,3,10.41405,-1.7220001,-1.1850001,1781189020377
2079548811,3,10.351951,-1.7200501,-1.164,1781189020388
2079548821,3,10.074,-1.5829501,-1.0489501,1781189020397
2079548831,3,9.66495,-1.404,-0.90300006,1781189020410
2079548841,3,9.16695,-1.2070501,-0.80700004,1781189020419
2079548851,3,8.68305,-1.04205,-0.726,1781189020428
2079548861,3,8.307,-0.94905007,-0.70395005,1781189020439
2079548871,3,8.049001,-0.91800004,-0.71595,1781189020448
2079548881,3,7.9480505,-0.96300006,-0.71595,1781189020458
2079548891,3,7.905,-1.06605,-0.72795004,1781189020468
2079548901,3,7.977,-1.1719501,-0.73305005,1781189020477
2079548911,3,8.06805,-1.27695,-0.75900006,1781189020488
2079548921,3,8.15205,-1.4110501,-0.74700004,1781189020499
2079548932,3,8.307,-1.521,-0.78300005,1781189020508
2079548942,3,8.488951,-1.62195,-0.85005003,1781189020519
2079548952,3,8.820001,-1.7629501,-1.03695,1781189020528
2079548962,3,9.14805,-1.8919501,-1.1920501,1781189020538
2079548972,3,9.436951,-2.01705,-1.33605,1781189020549
2079548982,3,9.696,-2.1030002,-1.4250001,1781189020559
2079548992,3,9.99495,-2.1750002,-1.5130501,1781189020569
2079549002,3,10.275001,-2.2150502,-1.52505,1781189020580
2079549012,3,10.42395,-2.1720002,-1.4269501,1781189020589
2079549022,3,10.41195,-2.05305,-1.2430501,1781189020599
2079549032,3,10.28295,-1.9470001,-1.044,1781189020609
2079549042,3,10.09305,-1.81305,-0.87405,1781189020620
2079549052,3,9.864,-1.69095,-0.75705004,1781189020628
2079549063,3,9.61905,-1.58595,-0.70605004,1781189020639
2079549073,3,9.327001,-1.485,-0.66105,1781189020650
2079549083,3,9.117001,-1.3969501,-0.60105,1781189020660
2079549093,3,8.911051,-1.35405,-0.55305004,1781189020670
2079549103,3,8.734051,-1.3249501,-0.51705,1781189020680
2079549113,3,8.596951,-1.29795,-0.46500003,1781189020690
2079549123,3,8.55405,-1.2750001,-0.42405003,1781189020700
2079549133,3,8.604,-1.2889501,-0.41895002,1781189020710
2079549143,3,8.712001,-1.35105,-0.46005002,1781189020720
2079549153,3,8.844001,-1.4110501,-0.51705,1781189020730
2079549163,3,8.932051,-1.4830501,-0.615,1781189020740
2079549173,3,9.02805,-1.5310501,-0.735,1781189020750
2079549183,3,9.085951,-1.5469501,-0.84300005,1781189020762
2079549193,3,9.082951,-1.5310501,-0.94095004,1781189020771
2079549204,3,9.045,-1.4680501,-1.00605,1781189020781
2079549214,3,9.033,-1.38705,-1.0680001,1781189020791
2079549224,3,9.021001,-1.332,-1.1209501,1781189020801
2079549234,3,9.02295,-1.30305,-1.116,1781189020812
2079549244,3,9.01095,-1.2790501,-1.056,1781189020820
2079549254,3,8.99205,-1.2859501,-0.99600005,1781189020831
2079549264,3,8.98995,-1.2889501,-0.92700005,1781189020841
2079549274,3,8.98005,-1.2720001,-0.81705004,1781189020851
2079549284,3,8.932051,-1.2720001,-0.726,1781189020861
2079549294,3,8.916,-1.296,-0.62505,1781189020871
2079549304,3,8.908051,-1.32,-0.56295,1781189020881
2079549314,3,8.911051,-1.34895,-0.55605,1781189020892
2079549324,3,8.916,-1.3800001,-0.54105,1781189020901
2079549335,3,8.917951,-1.38195,-0.56295,1781189020911
2079549345,3,8.92695,-1.3969501,-0.60105,1781189020922
2079549355,3,8.938951,-1.404,-0.60795003,1781189020931
2079549365,3,8.941951,-1.38195,-0.62295,1781189020943
2079549375,3,8.96805,-1.368,-0.63495004,1781189020952
2079549385,3,9.01605,-1.3609501,-0.62295,1781189020961
2079549395,3,9.057,-1.34895,-0.61800003,1781189020973
2079549405,3,9.093,-1.3249501,-0.642,1781189020982
2079549415,3,9.13095,-1.3060501,-0.65895003,1781189020991
2079549425,3,9.118951,-1.30095,-0.69000006,1781189021003
2079549435,3,9.081,-1.284,-0.68205005,1781189021012
2079549445,3,9.02805,-1.2409501,-0.68505,1781189021023
2079549455,3,8.98305,-1.23405,-0.65595,1781189021033
2079549466,3,8.941951,-1.21905,-0.65400004,1781189021041
2079549476,3,8.953951,-1.22895,-0.64695,1781189021054
2079549486,3,8.949,-1.2430501,-0.66300005,1781189021064
2079549496,3,8.985001,-1.263,-0.67095006,1781189021074
2079549506,3,9.01605,-1.2790501,-0.67305005,1781189021083
2079549516,3,8.99895,-1.3060501,-0.67995006,1781189021093
2079549526,3,8.99205,-1.31505,-0.726,1781189021103
2079549536,3,9.01395,-1.3300501,-0.74505,1781189021113
2079549546,3,8.997001,-1.32,-0.75705004,1781189021124
2079549556,3,8.98005,-1.30305,-0.76395005,1781189021134
2079549566,3,9.02595,-1.3099501,-0.77805007,1781189021143
2079549576,3,9.0400505,-1.3270501,-0.771,1781189021154
2079549586,3,8.962951,-1.2940501,-0.73800004,1781189021164
2079549596,3,8.89605,-1.2580501,-0.69195,1781189021174
2079549607,3,8.87205,-1.24605,-0.67095006,1781189021184
2079549617,3,8.925,-1.251,-0.675,1781189021194
2079549627,3,8.917951,-1.2600001,-0.66300005,1781189021204
2079549637,3,8.908051,-1.2580501,-0.666,1781189021214
2079549647,3,8.923051,-1.26495,-0.66105,1781189021224
2079549657,3,8.97105,-1.2940501,-0.68505,1781189021236
2079549667,3,8.99205,-1.3369501,-0.72795004,1781189021244
2079549677,3,9.00405,-1.3609501,-0.76395005,1781189021254
2079549687,3,9.052051,-1.3969501,-0.81705004,1781189021264
2079549697,3,9.13305,-1.4440501,-0.88095003,1781189021275
2079549707,3,9.16005,-1.4680501,-0.89595,1781189021285
2079549717,3,9.14295,-1.4610001,-0.86895007,1781189021295
2079549727,3,9.14295,-1.4680501,-0.88395005,1781189021304
2079549738,3,9.09,-1.4680501,-0.87195003,1781189021315
2079549748,3,9.04695,-1.4419501,-0.87600005,1781189021325
2079549758,3,9.021001,-1.4419501,-0.86205006,1781189021335
2079549768,3,8.985001,-1.452,-0.84795004,1781189021345
2079549778,3,8.938951,-1.4490001,-0.80700004,1781189021354
2079549788,3,8.901,-1.45605,-0.77295005,1781189021365
2079549798,3,8.929951,-1.473,-0.771,1781189021375
2079549808,3,8.98305,-1.4970001,-0.77595,1781189021385
2079549818,3,9.02805,-1.5259501,-0.78300005,1781189021395
2079549828,3,9.073951,-1.5450001,-0.78105,1781189021405
2079549838,3,9.118951,-1.53795,-0.80205005,1781189021416
2079549848,3,9.186001,-1.5469501,-0.82605004,1781189021426
2079549858,3,9.196051,-1.54005,-0.84000003,1781189021436
2079549869,3,9.13605,-1.488,-0.80895007,1781189021446
2079549879,3,9.073951,-1.4440501,-0.79005,1781189021458
2079549889,3,9.009001,-1.4130001,-0.77295005,1781189021467
2079549899,3,8.962951,-1.3920001,-0.72300005,1781189021475
2079549909,3,8.937,-1.38705,-0.68505,1781189021487
2079549919,3,8.920051,-1.389,-0.675,1781189021498
2079549929,3,8.904,-1.41795,-0.666,1781189021506
2079549939,3,8.908051,-1.41795,-0.69705003,1781189021517
2079549949,3,8.92695,-1.43505,-0.73800004,1781189021526
2079549959,3,8.973001,-1.4680501,-0.75900006,1781189021536
2079549969,3,9.021001,-1.4970001,-0.78300005,1781189021547
2079549979,3,9.057,-1.4950501,-0.80505,1781189021559
2079549989,3,9.078,-1.5090001,-0.79695004,1781189021567
2079550000,3,9.082951,-1.49205,-0.78300005,1781189021577
2079550010,3,9.085951,-1.4640001,-0.77295005,1781189021587
2079550020,3,9.093,-1.4440501,-0.75195,1781189021597
2079550030,3,9.09,-1.42305,-0.73995006,1781189021607
2079550040,3,9.069,-1.3800001,-0.71595,1781189021617
2079550050,3,9.03495,-1.3630501,-0.675,1781189021627
2079550060,3,9.0379505,-1.34895,-0.63000005,1781189021637
2079550070,3,9.018001,-1.33395,-0.60105,1781189021647
2079550080,3,9.009001,-1.32,-0.59400004,1781189021657
2079550090,3,9.018001,-1.34595,-0.615,1781189021667
2079550100,3,9.057,-1.38195,-0.65895003,1781189021677
2079550110,3,9.0709505,-1.416,-0.675,1781189021687
2079550120,3,9.064051,-1.42095,-0.68205005,1781189021696
2079550130,3,9.081,-1.44,-0.70395005,1781189021707
2079550141,3,9.11205,-1.45395,-0.74205005,1781189021719
2079550151,3,9.045,-1.44,-0.74505,1781189021727
2079550161,3,8.941951,-1.4059501,-0.73995006,1781189021737
2079550171,3,8.87205,-1.36995,-0.71400005,1781189021747
2079550181,3,8.877001,-1.3609501,-0.71595,1781189021757
2079550191,3,8.89395,-1.3770001,-0.74700004,1781189021768
2079550201,3,8.88,-1.3770001,-0.78105,1781189021777
2079550211,3,8.87205,-1.389,-0.78795004,1781189021788
2079550221,3,8.892,-1.4089501,-0.82605004,1781189021797
2079550231,3,8.93505,-1.42095,-0.85200006,1781189021808
2079550241,3,8.97105,-1.437,-0.86205006,1781189021817
2079550251,3,8.98005,-1.4490001,-0.85995007,1781189021827
2079550261,3,9.00405,-1.4470501,-0.82395005,1781189021837
2079550272,3,9.052051,-1.45905,-0.80700004,1781189021847
2079550282,3,9.114,-1.4830501,-0.81405,1781189021857
2079550292,3,9.1380005,-1.46595,-0.79005,1781189021869
2079550302,3,9.15705,-1.45605,-0.76905006,1781189021878
2079550312,3,9.220051,-1.46595,-0.77805007,1781189021888
2079550322,3,9.342,-1.5000001,-0.79305005,1781189021898
2079550332,3,9.504001,-1.5469501,-0.85005003,1781189021908
2079550342,3,9.63105,-1.5810001,-0.87405,1781189021918
2079550352,3,9.682051,-1.593,-0.86205006,1781189021929
2079550362,3,9.706051,-1.57605,-0.84000003,1781189021938
2079550372,3,9.744,-1.593,-0.81900007,1781189021949
2079550382,3,9.74895,-1.5810001,-0.80700004,1781189021960
2079550392,3,9.706051,-1.57395,-0.75705004,1781189021970
2079550403,3,9.6,-1.5310501,-0.71805006,1781189021980
2079550413,3,9.48795,-1.4899501,-0.67800003,1781189021990
2079550423,3,9.391951,-1.452,-0.64905006,1781189022001
2079550433,3,9.303,-1.4299501,-0.62295,1781189022010
2079550443,3,9.222,-1.4089501,-0.58695,1781189022020
2079550453,3,9.150001,-1.3990501,-0.57000005,1781189022030
2079550463,3,9.121051,-1.38495,-0.56505,1781189022040
2079550473,3,9.094951,-1.3920001,-0.58005005,1781189022051
2079550483,3,9.09,-1.38195,-0.59895,1781189022060
2079550493,3,9.066,-1.389,-0.62700003,1781189022070
2079550503,3,9.082951,-1.3800001,-0.67305005,1781189022080
2079550513,3,9.069,-1.3609501,-0.702,1781189022090
2079550523,3,9.066,-1.3579501,-0.73005,1781189022101
2079550533,3,9.114,-1.38495,-0.79305005,1781189022112
2079550544,3,9.16695,-1.404,-0.84000003,1781189022120
2079550554,3,9.18105,-1.4130001,-0.84495,1781189022131
2079550564,3,9.226951,-1.42305,-0.855,1781189022142
2079550574,3,9.282001,-1.437,-0.86895007,1781189022151
2079550584,3,9.30105,-1.452,-0.855,1781189022161
2079550594,3,9.303,-1.4610001,-0.83100003,1781189022172
2079550604,3,9.28695,-1.4800501,-0.80700004,1781189022182
2079550614,3,9.306001,-1.4970001,-0.78495,1781189022191
2079550624,3,9.318001,-1.5310501,-0.80205005,1781189022201
2079550634,3,9.32505,-1.55505,-0.79695004,1781189022211
2079550644,3,9.34605,-1.5690001,-0.78795004,1781189022221
2079550654,3,9.39,-1.5880501,-0.76905006,1781189022231
2079550664,3,9.43305,-1.6000501,-0.76395005,1781189022242
2079550675,3,9.460951,-1.6189501,-0.74700004,1781189022252
2079550685,3,9.46395,-1.6000501,-0.72300005,1781189022262
2079550695,3,9.385051,-1.5690001,-0.69705003,1781189022272
2079550705,3,9.247951,-1.5310501,-0.675,1781189022282
2079550715,3,9.1380005,-1.485,-0.65400004,1781189022292
2079550725,3,9.030001,-1.4419501,-0.62295,1781189022302
2079550735,3,8.929951,-1.3969501,-0.59400004,1781189022312
2079550745,3,8.877001,-1.3920001,-0.582,1781189022322
2079550755,3,8.889001,-1.38495,-0.60795003,1781189022332
2079550765,3,8.937,-1.416,-0.63900006,1781189022342
2079550775,3,9.01095,-1.416,-0.69705003,1781189022352
2079550785,3,9.094951,-1.43505,-0.77295005,1781189022362
2079550795,3,9.153001,-1.4419501,-0.85005003,1781189022373
2079550806,3,9.16695,-1.43505,-0.89100003,1781189022383
2079550816,3,9.174001,-1.416,-0.92700005,1781189022392
2079550826,3,9.15495,-1.416,-0.94305,1781189022402
2079550836,3,9.13095,-1.389,-0.91005003,1781189022413
2079550846,3,9.114,-1.3800001,-0.864,1781189022423
2079550856,3,9.13095,-1.38495,-0.85005003,1781189022433
2079550866,3,9.14295,-1.3990501,-0.81195,1781189022443
2079550876,3,9.150001,-1.41795,-0.79995006,1781189022453
2079550886,3,9.16905,-1.42305,-0.78795004,1781189022464
2079550896,3,9.19995,-1.43295,-0.77805007,1781189022474
2079550906,3,9.208051,-1.4250001,-0.73995006,1781189022484
2079550916,3,9.23595,-1.4130001,-0.72105,1781189022493
2079550926,3,9.271951,-1.416,-0.68700004,1781189022504
2079550937,3,9.294001,-1.42305,-0.66795003,1781189022513
2079550947,3,9.28695,-1.404,-0.62295,1781189022524
2079550957,3,9.27495,-1.3920001,-0.60300004,1781189022534
2079550967,3,9.214951,-1.3609501,-0.60105,1781189022544
2079550977,3,9.174001,-1.34895,-0.606,1781189022554
2079550987,3,9.13305,-1.34595,-0.62295,1781189022564
2079550997,3,9.085951,-1.3440001,-0.63495004,1781189022574
2079551007,3,9.057,-1.3630501,-0.65400004,1781189022584
2079551017,3,9.02805,-1.36995,-0.67095006,1781189022594
2079551027,3,9.0400505,-1.3969501,-0.69195,1781189022604
2079551037,3,9.061951,-1.42095,-0.73305005,1781189022614
2079551047,3,9.057,-1.44,-0.76905006,1781189022625
2079551057,3,9.078,-1.46595,-0.82095003,1781189022634
2079551067,3,9.118951,-1.4899501,-0.86895007,1781189022645
2079551078,3,9.14295,-1.4899501,-0.90000004,1781189022655
2079551088,3,9.150001,-1.4830501,-0.915,1781189022665
2079551098,3,9.15705,-1.4640001,-0.924,1781189022675
2079551108,3,9.19305,-1.46595,-0.93600005,1781189022685
2079551118,3,9.208051,-1.47105,-0.96000004,1781189022695
2079551128,3,9.247951,-1.46595,-0.93105006,1781189022705
2079551138,3,9.271951,-1.4680501,-0.90795004,1781189022715
2079551148,3,9.31995,-1.47105,-0.86700004,1781189022725
2079551158,3,9.354,-1.488,-0.82395005,1781189022735
2079551168,3,9.39,-1.4970001,-0.79305005,1781189022746
2079551178,3,9.423,-1.50705,-0.77295005,1781189022755
2079551188,3,9.415951,-1.50705,-0.73005,1781189022766
2079551198,3,9.378,-1.49205,-0.68700004,1781189022776
2079551209,3,9.39,-1.49205,-0.67305005,1781189022786
2079551219,3,9.342,-1.4899501,-0.63900006,1781189022796
2079551229,3,9.262951,-1.4640001,-0.58005005,1781189022806
2079551239,3,9.184051,-1.4419501,-0.51705,1781189022816
2079551249,3,9.198001,-1.4440501,-0.51000005,1781189022826
2079551259,3,9.196051,-1.4640001,-0.52905005,1781189022837
2079551269,3,9.165,-1.47105,-0.55605,1781189022846
2079551279,3,9.13305,-1.45395,-0.58395004,1781189022856
2079551289,3,9.141001,-1.45905,-0.615,1781189022866
2079551299,3,9.198001,-1.47105,-0.67800003,1781189022877
2079551309,3,9.217051,-1.4899501,-0.73005,1781189022886
2079551319,3,9.22395,-1.4779501,-0.78495,1781189022897
2079551329,3,9.214951,-1.4760001,-0.81705004,1781189022907
2079551340,3,9.241051,-1.452,-0.84300005,1781189022917
2079551350,3,9.30795,-1.4779501,-0.88095003,1781189022927
2079551360,3,9.31995,-1.488,-0.8880001,1781189022937
2079551370,3,9.31995,-1.4760001,-0.88095003,1781189022947
2079551380,3,9.303,-1.45905,-0.82605004,1781189022958
2079551390,3,9.342,-1.45605,-0.80205005,1781189022967
2079551400,3,9.366,-1.45605,-0.76605004,1781189022977
2079551410,3,9.399,-1.4440501,-0.73995006,1781189022987
2079551420,3,9.411,-1.43505,-0.67995006,1781189022998
2079551430,3,9.43305,-1.4470501,-0.66105,1781189023008
2079551440,3,9.411,-1.4470501,-0.63000005,1781189023018
2079551450,3,9.424951,-1.4130001,-0.59895,1781189023027
2079551460,3,9.424951,-1.4280001,-0.58695,1781189023038
2079551470,3,9.418051,-1.4299501,-0.57000005,1781189023049
2079551481,3,9.403951,-1.45395,-0.57000005,1781189023057
2079551491,3,9.387,-1.45395,-0.55995005,1781189023067
2079551501,3,9.34395,-1.4779501,-0.57000005,1781189023079
2079551511,3,9.32295,-1.4950501,-0.59205,1781189023089
2079551521,3,9.31305,-1.5120001,-0.61995006,1781189023097
2079551531,3,9.27705,-1.5280501,-0.66105,1781189023108
2079551541,3,9.246,-1.5160501,-0.68205005,1781189023118
2079551551,3,9.18795,-1.50405,-0.726,1781189023128
2079551561,3,9.109051,-1.4760001,-0.73800004,1781189023138
2079551571,3,9.02805,-1.4419501,-0.75705004,1781189023148
2079551581,3,8.98305,-1.4280001,-0.80895007,1781189023159
2079551591,3,8.97105,-1.42305,-0.86700004,1781189023168
2079551601,3,8.97795,-1.437,-0.94305,1781189023177
2079551612,3,9.02595,-1.4419501,-1.0009501,1781189023187
2079551622,3,9.073951,-1.43505,-1.0510501,1781189023199
2079551632,3,9.13305,-1.44,-1.07295,1781189023209
2079551642,3,9.214951,-1.45395,-1.09695,1781189023219
2079551652,3,9.28695,-1.488,-1.09695,1781189023228
2079551662,3,9.339001,-1.5090001,-1.11105,1781189023238
2079551672,3,9.354,-1.5090001,-1.07505,1781189023248
2079551682,3,9.32295,-1.4970001,-1.00995,1781189023259
2079551692,3,9.30105,-1.4899501,-0.92700005,1781189023270
2079551702,3,9.31995,-1.4970001,-0.85995007,1781189023280
2079551712,3,9.34395,-1.5000001,-0.79995006,1781189023290
2079551722,3,9.37005,-1.5120001,-0.735,1781189023301
2079551732,3,9.39,-1.5259501,-0.702,1781189023310
2079551743,3,9.43995,-1.54305,-0.675,1781189023320
2079551753,3,9.48795,-1.57095,-0.70905006,1781189023330
2079551763,3,9.49005,-1.5619501,-0.73005,1781189023340
2079551773,3,9.45405,-1.5690001,-0.74700004,1781189023350
2079551783,3,9.387,-1.5520501,-0.76905006,1781189023360
2079551793,3,9.294001,-1.5120001,-0.76395005,1781189023370
2079551803,3,9.229051,-1.4830501,-0.77295005,1781189023380
2079551813,3,9.21195,-1.488,-0.795,1781189023390
2079551823,3,9.196051,-1.473,-0.79995006,1781189023400
2079551833,3,9.174001,-1.46595,-0.82605004,1781189023410
2079551843,3,9.126,-1.4680501,-0.85200006,1781189023420
2079551853,3,9.064051,-1.43505,-0.855,1781189023430
2079551863,3,8.99895,-1.404,-0.85695004,1781189023440
2079551874,3,8.937,-1.3729501,-0.85695004,1781189023450
2079551884,3,8.887051,-1.33905,-0.85005003,1781189023461
2079551894,3,8.83695,-1.31805,-0.82395005,1781189023473
2079551904,3,8.809951,-1.31295,-0.80895007,1781189023481
2079551914,3,8.809951,-1.3060501,-0.79995006,1781189023492
2079551924,3,8.844001,-1.3270501,-0.795,1781189023501
2079551934,3,8.911051,-1.368,-0.82605004,1781189023513
2079551944,3,9.030001,-1.4059501,-0.85005003,1781189023522
2079551954,3,9.114,-1.4490001,-0.88095003,1781189023531
2079551964,3,9.18795,-1.49205,-0.88395005,1781189023544
2079551974,3,9.238951,-1.5090001,-0.85695004,1781189023553
2079551984,3,9.29895,-1.521,-0.83805007,1781189023562
2079551994,3,9.306001,-1.5499501,-0.79305005,1781189023572
2079552004,3,9.318001,-1.5589501,-0.75405,1781189023582
2079552015,3,9.33705,-1.5790501,-0.73305005,1781189023592
2079552025,3,9.385051,-1.593,-0.73005,1781189023602
2079552035,3,9.39,-1.5949501,-0.72105,1781189023612
2079552045,3,9.424951,-1.62405,-0.69405,1781189023622
2079552055,3,9.46905,-1.62405,-0.67305005,1781189023632
2079552065,3,9.47805,-1.6140001,-0.64905006,1781189023642
2079552075,3,9.427951,-1.5949501,-0.62700003,1781189023652
2079552085,3,9.402,-1.5690001,-0.62700003,1781189023662
2079552095,3,9.375,-1.57605,-0.63705003,1781189023672
2079552105,3,9.32505,-1.5589501,-0.64695,1781189023682
2079552115,3,9.267,-1.54305,-0.63705003,1781189023691
2079552125,3,9.18795,-1.5090001,-0.62295,1781189023702
2079552135,3,9.117001,-1.46595,-0.61305004,1781189023714
2079552146,3,9.042001,-1.4299501,-0.60300004,1781189023723
2079552156,3,8.956051,-1.3939501,-0.58905005,1781189023733
2079552166,3,8.932051,-1.389,-0.59205,1781189023743
2079552176,3,8.93505,-1.38495,-0.61095005,1781189023752
2079552186,3,8.920051,-1.3939501,-0.60795003,1781189023763
2079552196,3,8.92695,-1.389,-0.63900006,1781189023773
2079552206,3,8.956051,-1.3939501,-0.65400004,1781189023783
2079552216,3,8.973001,-1.42095,-0.67800003,1781189023793
2079552226,3,9.01605,-1.4250001,-0.69405,1781189023803
2079552236,3,9.078,-1.4299501,-0.711,1781189023813
2079552246,3,9.15705,-1.45905,-0.73305005,1781189023823
2079552256,3,9.222,-1.47105,-0.74700004,1781189023833
2079552266,3,9.295951,-1.49205,-0.74505,1781189023844
2079552277,3,9.375,-1.50405,-0.76605004,1781189023853
2079552287,3,9.459001,-1.5330001,-0.77595,1781189023864
2079552297,3,9.507001,-1.55505,-0.77295005,1781189023873
2079552307,3,9.531,-1.5589501,-0.771,1781189023883
2079552317,3,9.53295,-1.5589501,-0.74505,1781189023894
2079552327,3,9.49005,-1.557,-0.711,1781189023903
2079552337,3,9.448951,-1.5520501,-0.66300005,1781189023914
2079552347,3,9.394051,-1.5469501,-0.61095005,1781189023924
2079552357,3,9.32295,-1.5280501,-0.57195,1781189023934
2079552367,3,9.259951,-1.5259501,-0.53400004,1781189023944
2079552377,3,9.20505,-1.5259501,-0.50295,1781189023954
2079552387,3,9.17895,-1.50705,-0.50505,1781189023964
2079552397,3,9.19305,-1.4970001,-0.522,1781189023975
2079552407,3,9.196051,-1.50195,-0.58005005,1781189023984
2079552418,3,9.18795,-1.488,-0.61800003,1781189023995
2079552428,3,9.19095,-1.45395,-0.67800003,1781189024005
2079552438,3,9.196051,-1.43505,-0.71805006,1781189024015
2079552448,3,9.198001,-1.4089501,-0.75705004,1781189024025
2079552458,3,9.19095,-1.3770001,-0.79995006,1781189024035
2079552468,3,9.162001,-1.3560001,-0.80895007,1781189024045
2079552478,3,9.118951,-1.3300501,-0.81705004,1781189024055
2079552488,3,9.069,-1.3219501,-0.82905006,1781189024065
2079552498,3,9.03495,-1.30095,-0.81405,1781189024075
2079552508,3,9.042001,-1.3099501,-0.83595,1781189024085
2079552518,3,9.049951,-1.3249501,-0.85005003,1781189024097
2079552528,3,9.064051,-1.3579501,-0.87195003,1781189024107
2079552538,3,9.106951,-1.3800001,-0.89595,1781189024115
2079552549,3,9.141001,-1.41795,-0.89595,1781189024127
2079552559,3,9.150001,-1.4250001,-0.90495,1781189024136
2079552569,3,9.186001,-1.4440501,-0.90795004,1781189024146
2079552579,3,9.21,-1.45605,-0.915,1781189024156
2079552589,3,9.258,-1.473,-0.92205006,1781189024166
2079552599,3,9.32505,-1.50405,-0.89295006,1781189024177
2079552609,3,9.385051,-1.521,-0.88605005,1781189024186
2079552619,3,9.448951,-1.524,-0.855,1781189024196
2079552629,3,9.47595,-1.524,-0.85005003,1781189024207
2079552639,3,9.46605,-1.5139501,-0.82095003,1781189024217
2079552649,3,9.411,-1.49205,-0.80700004,1781189024227
2079552659,3,9.34605,-1.4760001,-0.77295005,1781189024237
2079552669,3,9.28905,-1.452,-0.75705004,1781189024247
2079552680,3,9.25605,-1.43295,-0.74205005,1781189024257
2079552690,3,9.229051,-1.437,-0.72795004,1781189024267
2079552700,3,9.208051,-1.45395,-0.72795004,1781189024277
2079552710,3,9.22395,-1.4470501,-0.75405,1781189024287
2079552720,3,9.250951,-1.45395,-0.76395005,1781189024297
2079552730,3,9.27,-1.45905,-0.79995006,1781189024307
2079552740,3,9.282001,-1.4440501,-0.84795004,1781189024317
2079552750,3,9.28905,-1.4470501,-0.87600005,1781189024327
2079552760,3,9.250951,-1.43295,-0.89595,1781189024337
2079552770,3,9.232051,-1.4440501,-0.91200006,1781189024347
2079552780,3,9.226951,-1.41795,-0.91005003,1781189024357
2079552790,3,9.226951,-1.4089501,-0.92700005,1781189024367
2079552800,3,9.22395,-1.3920001,-0.915,1781189024376
2079552811,3,9.250951,-1.416,-0.90795004,1781189024389
2079552821,3,9.262951,-1.4250001,-0.90300006,1781189024397
2079552831,3,9.315001,-1.4440501,-0.93405,1781189024407
2079552841,3,9.339001,-1.45395,-0.924,1781189024418
2079552851,3,9.36795,-1.4640001,-0.91695005,1781189024427
2079552861,3,9.373051,-1.4680501,-0.90000004,1781189024438
2079552871,3,9.363001,-1.46595,-0.87195003,1781189024449
2079552881,3,9.366,-1.4470501,-0.83595,1781189024458
2079552891,3,9.34395,-1.4470501,-0.79695004,1781189024468
2079552901,3,9.27705,-1.41795,-0.76395005,1781189024478
2079552911,3,9.267,-1.4089501,-0.72300005,1781189024489
2079552921,3,9.246,-1.42095,-0.69900006,1781189024499
2079552931,3,9.20505,-1.4059501,-0.67995006,1781189024508
2079552941,3,9.184051,-1.401,-0.66105,1781189024518
2079552952,3,9.16005,-1.3969501,-0.66105,1781189024528
2079552962,3,9.141001,-1.4110501,-0.63195,1781189024539
2079552972,3,9.12405,-1.4250001,-0.642,1781189024549
2079552982,3,9.15705,-1.46595,-0.666,1781189024559
2079552992,3,9.17595,-1.5000001,-0.69405,1781189024568
2079553002,3,9.174001,-1.5160501,-0.74205005,1781189024578
2079553012,3,9.184051,-1.5090001,-0.75405,1781189024588
2079553022,3,9.196051,-1.524,-0.771,1781189024599
2079553032,3,9.186001,-1.521,-0.77805007,1781189024608
2079553042,3,9.14295,-1.4899501,-0.79005,1781189024619
2079553052,3,9.129001,-1.4800501,-0.795,1781189024630
2079553062,3,9.13305,-1.473,-0.81900007,1781189024638
2079553072,3,9.121051,-1.4680501,-0.84000003,1781189024650
2079553083,3,9.106951,-1.45605,-0.79995006,1781189024659
2079553093,3,9.114,-1.452,-0.78795004,1781189024670
2079553103,3,9.153001,-1.473,-0.80505,1781189024680
2079553113,3,9.174001,-1.488,-0.81900007,1781189024690
2079553123,3,9.18795,-1.50195,-0.81405,1781189024700
2079553133,3,9.2029505,-1.488,-0.81195,1781189024710
2079553143,3,9.253051,-1.5139501,-0.81405,1781189024720
2079553153,3,9.318001,-1.54005,-0.84795004,1781189024731
2079553163,3,9.436951,-1.5829501,-0.85005003,1781189024740
2079553173,3,9.435,-1.5690001,-0.80700004,1781189024750
2079553183,3,9.37005,-1.5450001,-0.74205005,1781189024760
2079553193,3,9.294001,-1.53495,-0.68505,1781189024770
2079553203,3,9.23595,-1.4899501,-0.64905006,1781189024781
2079553214,3,9.22395,-1.4830501,-0.62295,1781189024791
2079553224,3,9.17595,-1.4779501,-0.58395004,1781189024801
2079553234,3,9.14505,-1.45905,-0.54795,1781189024811
2079553244,3,9.141001,-1.4640001,-0.54405004,1781189024821
2079553254,3,9.17595,-1.4760001,-0.57705003,1781189024831
2079553264,3,9.23595,-1.50705,-0.62505,1781189024841
2079553274,3,9.29895,-1.5190501,-0.65400004,1781189024851
2079553284,3,9.32295,-1.5190501,-0.67095006,1781189024861
2079553294,3,9.315001,-1.5160501,-0.69705003,1781189024871
2079553304,3,9.25605,-1.488,-0.71595,1781189024881
2079553314,3,9.15705,-1.45905,-0.702,1781189024891
2079553324,3,9.076051,-1.44,-0.69900006,1781189024901
2079553334,3,9.02805,-1.416,-0.69705003,1781189024912
2079553344,3,9.009001,-1.43505,-0.69900006,1781189024922
2079553355,3,9.021001,-1.4640001,-0.73005,1781189024932
2079553365,3,9.054001,-1.4950501,-0.75900006,1781189024942
2079553375,3,9.11205,-1.5280501,-0.795,1781189024952
2079553385,3,9.21,-1.5640501,-0.85005003,1781189024962
2079553395,3,9.295951,-1.6170001,-0.88605005,1781189024972
2079553405,3,9.363001,-1.6290001,-0.91695005,1781189024982
2079553415,3,9.4140005,-1.6339501,-0.91200006,1781189024992
2079553425,3,9.399,-1.60695,-0.86700004,1781189025002
2079553435,3,9.34605,-1.557,-0.81900007,1781189025012
2079553445,3,9.267,-1.4970001,-0.711,1781189025022
2079553455,3,9.17895,-1.45395,-0.61305004,1781189025032
2079553465,3,9.13605,-1.4130001,-0.55095005,1781189025042
2079553475,3,9.114,-1.3770001,-0.47895002,1781189025053
2079553486,3,9.121051,-1.3770001,-0.462,1781189025063
2079553496,3,9.16905,-1.3920001,-0.48405004,1781189025074
2079553506,3,9.21195,-1.4059501,-0.50100005,1781189025083
2079553516,3,9.250951,-1.4059501,-0.51705,1781189025094
2079553526,3,9.247951,-1.4250001,-0.558,1781189025102
2079553536,3,9.238951,-1.4089501,-0.58005005,1781189025113
2079553546,3,9.196051,-1.4059501,-0.606,1781189025123
2079553556,3,9.126,-1.38495,-0.64395005,1781189025133
2079553566,3,9.093,-1.3770001,-0.63900006,1781189025143
2079553576,3,9.042001,-1.365,-0.642,1781189025153
2079553586,3,9.00195,-1.36995,-0.651,1781189025164
2079553596,3,8.98305,-1.3579501,-0.69705003,1781189025173
2079553606,3,8.986951,-1.3630501,-0.75195,1781189025183
2079553617,3,9.01395,-1.3920001,-0.79995006,1781189025194
2079553627,3,9.054001,-1.41795,-0.84795004,1781189025203
2079553637,3,9.097051,-1.4299501,-0.88095003,1781189025215
2079553647,3,9.14505,-1.43505,-0.90795004,1781189025226
2079553657,3,9.20505,-1.4640001,-0.91695005,1781189025234
2079553667,3,9.253051,-1.4640001,-0.91695005,1781189025244
2079553677,3,9.30105,-1.4800501,-0.89595,1781189025254
2079553687,3,9.354,-1.5000001,-0.89295006,1781189025264
2079553697,3,9.394051,-1.485,-0.86205006,1781189025274
2079553707,3,9.403951,-1.4779501,-0.82605004,1781189025284
2079553717,3,9.436951,-1.45905,-0.79305005,1781189025295
2079553727,3,9.436951,-1.45395,-0.75900006,1781189025304
2079553737,3,9.424951,-1.4280001,-0.73005,1781189025315
2079553748,3,9.366,-1.3939501,-0.675,1781189025325
2079553758,3,9.262951,-1.35105,-0.642,1781189025335
2079553768,3,9.2029505,-1.3420501,-0.59400004,1781189025345
2079553778,3,9.13095,-1.3420501,-0.56805,1781189025355
2079553788,3,9.10005,-1.3369501,-0.58395004,1781189025365
2079553798,3,9.109051,-1.34895,-0.61800003,1781189025375
2079553808,3,9.1050005,-1.3750501,-0.65595,1781189025385
2079553818,3,9.09,-1.38195,-0.66795003,1781189025395
2079553828,3,9.088051,-1.42095,-0.69900006,1781189025405
2079553838,3,9.11205,-1.43505,-0.72105,1781189025415
2079553848,3,9.165,-1.4970001,-0.82395005,1781189025425
2079553858,3,9.18795,-1.5190501,-0.87900007,1781189025436
2079553868,3,9.17895,-1.5259501,-0.93405,1781189025446
2079553878,3,9.153001,-1.49205,-0.97695005,1781189025456
2079553889,3,9.12405,-1.473,-0.99105006,1781189025466
2079553899,3,9.102,-1.45905,-0.97200006,1781189025475
2079553909,3,9.13605,-1.4440501,-0.95295006,1781189025487
2079553919,3,9.21195,-1.46595,-0.93900007,1781189025496
2079553929,3,9.31095,-1.4899501,-0.9580501,1781189025506
2079553939,3,9.4140005,-1.5280501,-0.97200006,1781189025515
2079553949,3,9.47805,-1.5619501,-0.975,1781189025526
2079553959,3,9.5449505,-1.5589501,-0.97200006,1781189025536
2079553969,3,9.639001,-1.57605,-0.97695005,1781189025547
2079553979,3,9.67695,-1.57095,-0.975,1781189025556
2079553989,3,9.67695,-1.5670501,-0.91200006,1781189025567
2079553999,3,9.624001,-1.5499501,-0.84000003,1781189025577
2079554009,3,9.483001,-1.50705,-0.73305005,1781189025587
2079554020,3,9.35595,-1.4440501,-0.63900006,1781189025597
2079554030,3,9.247951,-1.43505,-0.582,1781189025607
2079554040,3,9.18795,-1.4280001,-0.57705003,1781189025617
2079554050,3,9.17595,-1.47105,-0.59595,1781189025627
2079554060,3,9.214951,-1.4970001,-0.63195,1781189025637
2079554070,3,9.234,-1.5310501,-0.702,1781189025647
2079554080,3,9.2029505,-1.5139501,-0.74700004,1781189025657
2079554090,3,9.14295,-1.521,-0.78495,1781189025667
2079554100,3,9.076051,-1.4970001,-0.80505,1781189025677
2079554110,3,9.018001,-1.45905,-0.81900007,1781189025688
2079554120,3,8.974951,-1.43295,-0.83595,1781189025697
2079554130,3,8.953951,-1.4250001,-0.84495,1781189025707
2079554140,3,8.944051,-1.43295,-0.87405,1781189025718
2079554151,3,8.98305,-1.4490001,-0.89295006,1781189025727
2079554161,3,9.04695,-1.4830501,-0.94095004,1781189025737
2079554171,3,9.1050005,-1.5139501,-0.96495,1781189025746
2079554181,3,9.165,-1.53495,-0.97695005,1781189025757
2079554191,3,9.246,-1.5469501,-0.9990001,1781189025767
2079554201,3,9.282001,-1.57095,-0.97695005,1781189025777
2079554211,3,9.31995,-1.5790501,-0.9480001,1781189025787
2079554221,3,9.378,-1.6099501,-0.94305,1781189025799
2079554231,3,9.403951,-1.593,-0.92205006,1781189025809
2079554241,3,9.45405,-1.605,-0.87600005,1781189025817
2079554251,3,9.483001,-1.6309501,-0.83805007,1781189025829
2079554261,3,9.493051,-1.6339501,-0.78795004,1781189025839
2079554271,3,9.460951,-1.626,-0.70905006,1781189025849
2079554281,3,9.427951,-1.6030501,-0.65595,1781189025858
2079554292,3,9.37005,-1.593,-0.61995006,1781189025870
2079554302,3,9.30795,-1.5690001,-0.582,1781189025878
2079554312,3,9.23595,-1.5640501,-0.55095005,1781189025889
2079554322,3,9.19095,-1.5450001,-0.56505,1781189025898
2079554332,3,9.141001,-1.54005,-0.56295,1781189025908
2079554342,3,9.11205,-1.5280501,-0.582,1781189025918
2079554352,3,9.121051,-1.5280501,-0.63195,1781189025928
2079554362,3,9.12405,-1.54305,-0.67305005,1781189025938
2079554372,3,9.153001,-1.53495,-0.69195,1781189025950
2079554382,3,9.165,-1.5280501,-0.73305005,1781189025959
2079554392,3,9.17205,-1.54005,-0.79005,1781189025970
2079554402,3,9.14295,-1.5310501,-0.80205005,1781189025979
2079554412,3,9.102,-1.50405,-0.82095003,1781189025990
2079554423,3,9.049951,-1.4830501,-0.81195,1781189025999
2079554433,3,9.033,-1.488,-0.81705004,1781189026010
2079554443,3,8.997001,-1.4800501,-0.80505,1781189026020
2079554453,3,9.00195,-1.47105,-0.78495,1781189026030
2079554463,3,9.02805,-1.4830501,-0.78105,1781189026040
2079554473,3,9.078,-1.488,-0.75705004,1781189026050
2079554483,3,9.13605,-1.5139501,-0.771,1781189026060
2079554493,3,9.217051,-1.5450001,-0.74700004,1781189026070
2079554503,3,9.306001,-1.57095,-0.75195,1781189026080
2079554513,3,9.399,-1.60695,-0.75195,1781189026090
2079554523,3,9.460951,-1.61205,-0.74505,1781189026100
2079554533,3,9.493051,-1.6030501,-0.771,1781189026110
2079554543,3,9.495001,-1.593,-0.76395005,1781189026121
2079554554,3,9.46605,-1.5619501,-0.73995006,1781189026132
2079554564,3,9.423,-1.5280501,-0.69900006,1781189026140
2079554574,3,9.33705,-1.50195,-0.642,1781189026151
2079554584,3,9.265051,-1.46595,-0.61095005,1781189026161
2079554594,3,9.18105,-1.44,-0.57705003,1781189026171
2079554604,3,9.13095,-1.4280001,-0.55995005,1781189026181
2079554614,3,9.102,-1.42305,-0.558,1781189026191
2079554624,3,9.097051,-1.437,-0.58005005,1781189026201
2079554634,3,9.085951,-1.46595,-0.62295,1781189026213
2079554644,3,9.082951,-1.4950501,-0.65895003,1781189026222
2079554654,3,9.081,-1.50405,-0.69705003,1781189026232
2079554664,3,9.081,-1.4950501,-0.72300005,1781189026241
2079554674,3,9.057,-1.4970001,-0.75000006,1781189026252
2079554685,3,9.03495,-1.4610001,-0.78495,1781189026262
2079554695,3,9.021001,-1.43295,-0.80700004,1781189026272
2079554705,3,8.997001,-1.4089501,-0.82095003,1781189026282
2079554715,3,8.98995,-1.3990501,-0.82905006,1781189026292
2079554725,3,9.00405,-1.3990501,-0.84300005,1781189026302
2079554735,3,9.049951,-1.4280001,-0.86205006,1781189026312
2079554745,3,9.10005,-1.45905,-0.89595,1781189026322
2079554755,3,9.15705,-1.49205,-0.91995007,1781189026332
2079554765,3,9.208051,-1.5120001,-0.92700005,1781189026342
2079554775,3,9.262951,-1.5450001,-0.93405,1781189026352
2079554785,3,9.327001,-1.57395,-0.91005003,1781189026362
2079554795,3,9.411,-1.6000501,-0.90300006,1781189026372
2079554805,3,9.49005,-1.605,-0.86895007,1781189026382
2079554815,3,9.5119505,-1.6189501,-0.83595,1781189026392
2079554826,3,9.4810505,-1.6030501,-0.79305005,1781189026402
2079554836,3,9.40905,-1.5640501,-0.73005,1781189026412
2079554846,3,9.318001,-1.5120001,-0.68505,1781189026423
2079554856,3,9.241051,-1.45395,-0.63000005,1781189026433
2079554866,3,9.17205,-1.44,-0.60795003,1781189026443
2079554876,3,9.153001,-1.437,-0.57195,1781189026452
2079554886,3,9.13305,-1.44,-0.57705003,1781189026464
2079554896,3,9.1380005,-1.437,-0.59595,1781189026473
2079554906,3,9.14805,-1.437,-0.61995006,1781189026483
2079554916,3,9.14805,-1.437,-0.64905006,1781189026494
2079554926,3,9.12405,-1.4280001,-0.69000006,1781189026502
2079554936,3,9.102,-1.42095,-0.71400005,1781189026513
2079554946,3,9.066,-1.42305,-0.73005,1781189026525
2079554957,3,9.057,-1.4059501,-0.79695004,1781189026534
2079554967,3,9.042001,-1.4110501,-0.84000003,1781189026544
2079554977,3,9.0400505,-1.4089501,-0.85695004,1781189026554
2079554987,3,9.052051,-1.3990501,-0.864,1781189026564
2079554997,3,9.073951,-1.389,-0.87600005,1781189026574
2079555007,3,9.117001,-1.4089501,-0.87405,1781189026584
2079555017,3,9.19995,-1.41795,-0.90000004,1781189026594
2079555027,3,9.283951,-1.452,-0.93600005,1781189026604
2079555037,3,9.387,-1.473,-0.9670501,1781189026614
2079555047,3,9.47805,-1.5139501,-0.98205006,1781189026624
2079555057,3,9.504001,-1.5280501,-0.96000004,1781189026634
2079555067,3,9.493051,-1.53795,-0.90300006,1781189026644
2079555077,3,9.46605,-1.521,-0.86700004,1781189026654
2079555088,3,9.418051,-1.50705,-0.81405,1781189026665
2079555098,3,9.387,-1.488,-0.771,1781189026675
2079555108,3,9.35805,-1.4899501,-0.70605004,1781189026685
2079555118,3,9.361051,-1.50195,-0.67995006,1781189026695
2079555128,3,9.32295,-1.50705,-0.66300005,1781189026705
2079555138,3,9.31095,-1.5280501,-0.64695,1781189026715
2079555148,3,9.27705,-1.5190501,-0.61800003,1781189026725
2079555158,3,9.25605,-1.5120001,-0.63495004,1781189026735
2079555168,3,9.23595,-1.4970001,-0.642,1781189026746
2079555178,3,9.19995,-1.5000001,-0.67305005,1781189026756
2079555188,3,9.17205,-1.485,-0.70905006,1781189026766
2079555198,3,9.14295,-1.4680501,-0.76395005,1781189026776
2079555208,3,9.085951,-1.43505,-0.78795004,1781189026785
2079555218,3,9.042001,-1.416,-0.81195,1781189026796
2079555229,3,9.02805,-1.3939501,-0.85005003,1781189026806
2079555239,3,9.00195,-1.4110501,-0.88395005,1781189026816
2079555249,3,9.009001,-1.41795,-0.90495,1781189026826
2079555259,3,9.018001,-1.4250001,-0.93405,1781189026836
2079555269,3,9.0400505,-1.45905,-0.95295006,1781189026846
2079555279,3,9.066,-1.4779501,-0.9889501,1781189026856
2079555289,3,9.093,-1.4970001,-1.0030501,1781189026867
2079555299,3,9.15495,-1.53795,-1.00995,1781189026876
2079555309,3,9.220051,-1.5790501,-1.02495,1781189026886
2079555319,3,9.31095,-1.6140001,-1.04205,1781189026897
2079555329,3,9.366,-1.6380001,-1.04205,1781189026907
2079555339,3,9.42105,-1.6459501,-1.04205,1781189026917
2079555349,3,9.459001,-1.6459501,-1.0009501,1781189026927
2079555360,3,9.495001,-1.66005,-0.96000004,1781189026937
2079555370,3,9.48795,-1.6530001,-0.91200006,1781189026947
2079555380,3,9.46905,-1.6459501,-0.85995007,1781189026957
2079555390,3,9.43305,-1.6339501,-0.79005,1781189026967
2079555400,3,9.36795,-1.6380001,-0.726,1781189026977
2079555410,3,9.294001,-1.62195,-0.64905006,1781189026987
2079555420,3,9.21195,-1.6099501,-0.58905005,1781189026997
2079555430,3,9.162001,-1.6000501,-0.546,1781189027007
2079555440,3,9.141001,-1.5810001,-0.55305004,1781189027017
2079555450,3,9.1380005,-1.5829501,-0.56505,1781189027028
2079555460,3,9.153001,-1.6099501,-0.606,1781189027037
2079555470,3,9.198001,-1.61205,-0.64905006,1781189027047
2079555480,3,9.17595,-1.62405,-0.70395005,1781189027057
2079555491,3,9.12405,-1.6140001,-0.735,1781189027069
2079555501,3,9.088051,-1.58595,-0.771,1781189027079
2079555511,3,9.057,-1.5589501,-0.80505,1781189027088
2079555521,3,9.02595,-1.53795,-0.81405,1781189027098
2079555531,3,9.030001,-1.54305,-0.80505,1781189027108
2079555541,3,9.054001,-1.5330001,-0.79995006,1781189027117
2079555551,3,9.1050005,-1.5450001,-0.81195,1781189027130
2079555561,3,9.16005,-1.5619501,-0.83100003,1781189027138
2079555571,3,9.246,-1.58595,-0.84795004,1781189027147
2079555581,3,9.327001,-1.60695,-0.87900007,1781189027157
2079555591,3,9.39,-1.62195,-0.8880001,1781189027169
2079555601,3,9.418051,-1.64295,-0.87600005,1781189027179
2079555611,3,9.427951,-1.64295,-0.84000003,1781189027189
2079555622,3,9.4470005,-1.641,-0.795,1781189027199
2079555632,3,9.43305,-1.64295,-0.73305005,1781189027209
2079555642,3,9.418051,-1.6530001,-0.675,1781189027219
2079555652,3,9.424951,-1.6380001,-0.61095005,1781189027228
2079555662,3,9.394051,-1.6099501,-0.56295,1781189027240
2079555672,3,9.36795,-1.6170001,-0.522,1781189027248
2079555682,3,9.373051,-1.626,-0.49800003,1781189027258
2079555692,3,9.339001,-1.6360501,-0.49305,1781189027268
2079555702,3,9.262951,-1.641,-0.50805,1781189027279
2079555712,3,9.184051,-1.6339501,-0.49800003,1781189027288
2079555722,3,9.11205,-1.6030501,-0.522,1781189027299
2079555732,3,9.054001,-1.593,-0.52395004,1781189027309
2079555742,3,9.021001,-1.5670501,-0.55095005,1781189027319
2079555752,3,9.00195,-1.5520501,-0.57195,1781189027330
2079555763,3,8.95905,-1.53795,-0.59895,1781189027339
2079555773,3,8.93505,-1.5120001,-0.63495004,1781189027350
2079555783,3,8.901,-1.488,-0.65895003,1781189027360
2079555793,3,8.877001,-1.4760001,-0.69705003,1781189027370
2079555803,3,8.87205,-1.452,-0.71595,1781189027380
2079555813,3,8.911051,-1.4490001,-0.77295005,1781189027390
2079555823,3,8.950951,-1.4470501,-0.80895007,1781189027400
2079555833,3,8.97105,-1.4440501,-0.83295006,1781189027410
2079555843,3,9.02805,-1.437,-0.864,1781189027420
2079555853,3,9.076051,-1.4440501,-0.87900007,1781189027430
2079555863,3,9.14295,-1.45905,-0.87600005,1781189027440
2079555873,3,9.21,-1.46595,-0.89100003,1781189027450
2079555883,3,9.31095,-1.4779501,-0.88395005,1781189027463
2079555894,3,9.394051,-1.50405,-0.88605005,1781189027472
2079555904,3,9.448951,-1.5259501,-0.85200006,1781189027481
2079555914,3,9.49695,-1.5499501,-0.80205005,1781189027491
2079555924,3,9.52095,-1.55505,-0.76395005,1781189027501
2079555934,3,9.483001,-1.5619501,-0.726,1781189027511
2079555944,3,9.44205,-1.5640501,-0.675,1781189027520
2079555954,3,9.375,-1.53795,-0.62295,1781189027531
2079555964,3,9.253051,-1.5259501,-0.57000005,1781189027541
2079555974,3,9.16005,-1.50195,-0.522,1781189027551
2079555984,3,9.04695,-1.4830501,-0.51195,1781189027561
2079555994,3,9.01395,-1.4800501,-0.51705,1781189027571
2079556004,3,9.0379505,-1.4779501,-0.58695,1781189027582
2079556014,3,9.109051,-1.5280501,-0.63195,1781189027592
2079556025,3,9.18795,-1.5469501,-0.71400005,1781189027602
2079556035,3,9.250951,-1.557,-0.79305005,1781189027612
2079556045,3,9.267,-1.54005,-0.85995007,1781189027622
2079556055,3,9.226951,-1.4970001,-0.89595,1781189027632
2079556065,3,9.165,-1.4419501,-0.92700005,1781189027642
2079556075,3,9.10005,-1.3920001,-0.91200006,1781189027653
2079556085,3,9.0379505,-1.35405,-0.90000004,1781189027662
2079556095,3,8.99895,-1.32,-0.87900007,1781189027672
2079556105,3,9.021001,-1.31505,-0.87195003,1781189027682
2079556115,3,9.066,-1.31295,-0.86205006,1781189027692
2079556125,3,9.15495,-1.34895,-0.87900007,1781189027702
2079556135,3,9.241051,-1.38495,-0.89595,1781189027712
2079556145,3,9.315001,-1.404,-0.91005003,1781189027723
2079556155,3,9.35805,-1.4250001,-0.915,1781189027733
2079556166,3,9.397051,-1.44,-0.89295006,1781189027743
2079556176,3,9.418051,-1.4490001,-0.86895007,1781189027752
2079556186,3,9.415951,-1.42095,-0.83100003,1781189027763
2079556196,3,9.40905,-1.437,-0.78495,1781189027773
2079556206,3,9.411,-1.4640001,-0.74505,1781189027783
2079556216,3,9.43305,-1.4680501,-0.72795004,1781189027793
2079556226,3,9.435,-1.5000001,-0.71595,1781189027803
2079556236,3,9.403951,-1.50195,-0.69000006,1781189027813
2079556246,3,9.36795,-1.5280501,-0.68505,1781189027823
2079556256,3,9.291,-1.5280501,-0.702,1781189027833
2079556266,3,9.21195,-1.521,-0.72105,1781189027843
2079556276,3,9.165,-1.53495,-0.74505,1781189027853
2079556286,3,9.14295,-1.5520501,-0.77295005,1781189027864
2079556297,3,9.13605,-1.57605,-0.81195,1781189027874
2079556307,3,9.16005,-1.5880501,-0.87195003,1781189027884
2079556317,3,9.15705,-1.5979501,-0.87900007,1781189027894
2079556327,3,9.11205,-1.593,-0.88605005,1781189027903
2079556337,3,9.097051,-1.5690001,-0.87600005,1781189027914
2079556347,3,9.085951,-1.5330001,-0.89100003,1781189027924
2079556357,3,9.076051,-1.50195,-0.90795004,1781189027934
2079556367,3,9.069,-1.488,-0.92700005,1781189027944
2079556377,3,9.061951,-1.47105,-0.924,1781189027954
2079556387,3,9.0709505,-1.4470501,-0.94605005,1781189027964
2079556397,3,9.05895,-1.43505,-0.91695005,1781189027974
2079556407,3,9.057,-1.4110501,-0.89805007,1781189027984
2079556417,3,9.088051,-1.42305,-0.88605005,1781189027994
2079556428,3,9.153001,-1.4490001,-0.86895007,1781189028005
2079556438,3,9.250951,-1.4899501,-0.87900007,1781189028015
2079556448,3,9.394051,-1.5450001,-0.87405,1781189028025
2079556458,3,9.535951,-1.58595,-0.88395005,1781189028035
2079556468,3,9.615001,-1.6170001,-0.87405,1781189028045
2079556478,3,9.595051,-1.61205,-0.84300005,1781189028057
2079556488,3,9.519,-1.5810001,-0.78300005,1781189028065
2079556498,3,9.411,-1.5280501,-0.72795004,1781189028075
2079556508,3,9.29895,-1.4800501,-0.666,1781189028085
2079556518,3,9.19305,-1.46595,-0.61305004,1781189028097
2079556528,3,9.13095,-1.45395,-0.56805,1781189028105
2079556538,3,9.11205,-1.47105,-0.546,1781189028115
2079556548,3,9.1380005,-1.5280501,-0.58005005,1781189028126
2079556559,3,9.232051,-1.59105,-0.651,1781189028138
2079556569,3,9.295951,-1.6290001,-0.72300005,1781189028147
2079556579,3,9.33705,-1.66005,-0.79005,1781189028157
2079556589,3,9.363001,-1.6650001,-0.83295006,1781189028168
2079556599,3,9.342,-1.6620001,-0.87405,1781189028176
2079556609,3,9.282001,-1.6309501,-0.88605005,1781189028186
2079556619,3,9.17595,-1.5829501,-0.86895007,1781189028196
2079556629,3,9.076051,-1.5469501,-0.84795004,1781189028206
2079556639,3,9.01395,-1.5090001,-0.80205005,1781189028216
2079556649,3,8.96805,-1.4830501,-0.78495,1781189028231
2079556659,3,8.962951,-1.4490001,-0.75900006,1781189028238
2079556669,3,8.99205,-1.43295,-0.75405,1781189028247
2079556679,3,9.045,-1.44,-0.78300005,1781189028256
2079556689,3,9.13095,-1.46595,-0.81195,1781189028267
2079556700,3,9.208051,-1.4830501,-0.82605004,1781189028277
2079556710,3,9.282001,-1.5120001,-0.85005003,1781189028286
2079556720,3,9.33195,-1.524,-0.855,1781189028297
2079556730,3,9.373051,-1.5310501,-0.82095003,1781189028307
2079556740,3,9.403951,-1.5310501,-0.795,1781189028317
2079556750,3,9.403951,-1.53495,-0.74505,1781189028327
2079556760,3,9.39,-1.5619501,-0.71805006,1781189028338
2079556770,3,9.375,-1.5790501,-0.69000006,1781189028347
2079556780,3,9.3490505,-1.6000501,-0.67800003,1781189028357
2079556790,3,9.318001,-1.5979501,-0.66300005,1781189028367
2079556800,3,9.28905,-1.6030501,-0.67305005,1781189028377
2079556810,3,9.250951,-1.5949501,-0.65595,1781189028386
2079556820,3,9.19995,-1.5790501,-0.65400004,1781189028397
2079556831,3,9.141001,-1.5790501,-0.64395005,1781189028409
2079556841,3,9.1050005,-1.5589501,-0.64395005,1781189028419
2079556851,3,9.061951,-1.53495,-0.66105,1781189028427
2079556861,3,9.057,-1.5330001,-0.68700004,1781189028437
2079556871,3,9.05895,-1.5330001,-0.73995006,1781189028447
2079556881,3,9.1050005,-1.5330001,-0.78300005,1781189028459
2079556891,3,9.13095,-1.5330001,-0.81900007,1781189028468
2079556901,3,9.121051,-1.5139501,-0.85200006,1781189028477
2079556911,3,9.097051,-1.473,-0.84000003,1781189028489
2079556921,3,9.04695,-1.45605,-0.83805007,1781189028499
2079556931,3,9.018001,-1.4470501,-0.83805007,1781189028510
2079556941,3,9.00195,-1.4299501,-0.84000003,1781189028518
2079556951,3,9.021001,-1.41795,-0.83805007,1781189028527
2079556962,3,9.04695,-1.43295,-0.84795004,1781189028539
2079556972,3,9.10005,-1.45395,-0.84000003,1781189028549
2079556982,3,9.16905,-1.49205,-0.85005003,1781189028559
2079556992,3,9.258,-1.5310501,-0.86700004,1781189028569
2079557002,3,9.3490505,-1.5450001,-0.89100003,1781189028579
2079557012,3,9.415951,-1.57395,-0.88095003,1781189028588
2079557022,3,9.47295,-1.57605,-0.84795004,1781189028598
2079557032,3,9.50895,-1.5829501,-0.81405,1781189028608
2079557042,3,9.52095,-1.5810001,-0.78495,1781189028619
2079557052,3,9.49695,-1.57095,-0.75000006,1781189028630
2079557062,3,9.45405,-1.557,-0.70905006,1781189028638
2079557072,3,9.4140005,-1.54305,-0.68505,1781189028649
2079557082,3,9.3490505,-1.524,-0.64695,1781189028660
2079557092,3,9.27495,-1.5000001,-0.63495004,1781189028670
2079557103,3,9.21195,-1.4779501,-0.63000005,1781189028680
2079557113,3,9.1380005,-1.4470501,-0.61995006,1781189028690
2079557123,3,9.093,-1.437,-0.61305004,1781189028700
2079557133,3,9.061951,-1.4280001,-0.64695,1781189028710
2079557143,3,9.057,-1.4299501,-0.68505,1781189028720
2079557153,3,9.05895,-1.4299501,-0.72795004,1781189028730
2079557163,3,9.073951,-1.416,-0.77595,1781189028740
2079557173,3,9.1050005,-1.4130001,-0.81900007,1781189028750
2079557183,3,9.14295,-1.3990501,-0.855,1781189028760
2079557193,3,9.13605,-1.38495,-0.85995007,1781189028770
2079557203,3,9.121051,-1.3750501,-0.84000003,1781189028781
2079557213,3,9.121051,-1.3800001,-0.84000003,1781189028790
2079557223,3,9.162001,-1.38495,-0.86895007,1781189028800
2079557234,3,9.17205,-1.42095,-0.87405,1781189028811
2079557244,3,9.16905,-1.416,-0.84495,1781189028821
2079557254,3,9.2029505,-1.4250001,-0.83295006,1781189028831
2079557264,3,9.265051,-1.4610001,-0.85695004,1781189028841
2079557274,3,9.32295,-1.4830501,-0.83595,1781189028851
2079557284,3,9.34605,-1.5139501,-0.81405,1781189028861
2079557294,3,9.366,-1.5280501,-0.78495,1781189028871
2079557304,3,9.411,-1.5450001,-0.77805007,1781189028881
2079557314,3,9.46905,-1.5589501,-0.77295005,1781189028891
2079557324,3,9.46605,-1.5670501,-0.76095,1781189028901
2079557334,3,9.435,-1.5690001,-0.73995006,1781189028911
2079557344,3,9.427951,-1.54305,-0.71595,1781189028922
2079557354,3,9.4140005,-1.5469501,-0.74700004,1781189028932
2079557365,3,9.33195,-1.54005,-0.726,1781189028942
2079557375,3,9.24405,-1.50405,-0.69405,1781189028952
2079557385,3,9.14295,-1.4610001,-0.67095006,1781189028962
2079557395,3,9.05895,-1.4419501,-0.66105,1781189028971
2079557405,3,9.01095,-1.4250001,-0.67095006,1781189028982
2079557415,3,8.99505,-1.4280001,-0.702,1781189028992
2079557425,3,9.02295,-1.437,-0.735,1781189029002
2079557435,3,9.049951,-1.46595,-0.80205005,1781189029012
2079557445,3,9.088051,-1.485,-0.85995007,1781189029022
2079557455,3,9.094951,-1.50405,-0.89595,1781189029032
2079557465,3,9.0709505,-1.4800501,-0.89595,1781189029042
2079557475,3,9.01095,-1.45395,-0.90300006,1781189029052
2079557485,3,8.97795,-1.4059501,-0.87900007,1781189029062
2079557496,3,8.98995,-1.3990501,-0.86700004,1781189029072
2079557506,3,9.033,-1.43295,-0.86895007,1781189029083
2079557516,3,9.118951,-1.45905,-0.86700004,1781189029092
2079557526,3,9.229051,-1.4950501,-0.864,1781189029102
2079557536,3,9.35595,-1.54005,-0.90000004,1781189029112
2079557546,3,9.483001,-1.5949501,-0.89805007,1781189029124
2079557556,3,9.576,-1.61205,-0.915,1781189029133
2079557566,3,9.591001,-1.6459501,-0.92700005,1781189029143
2079557576,3,9.568951,-1.65795,-0.89805007,1781189029153
2079557586,3,9.516001,-1.6669501,-0.88095003,1781189029163
2079557596,3,9.471001,-1.66005,-0.82605004,1781189029173
2079557606,3,9.387,-1.65795,-0.75000006,1781189029183
2079557616,3,9.318001,-1.6500001,-0.69900006,1781189029194
2079557626,3,9.259951,-1.6099501,-0.62700003,1781189029203
2079557637,3,9.17895,-1.5979501,-0.582,1781189029214
2079557647,3,9.1050005,-1.57395,-0.56805,1781189029224
2079557657,3,9.097051,-1.5619501,-0.582,1781189029234
2079557667,3,9.118951,-1.5589501,-0.63195,1781189029244
2079557677,3,9.109051,-1.53495,-0.67995006,1781189029254
2079557687,3,9.10005,-1.5120001,-0.71595,1781189029264
2079557697,3,9.061951,-1.45395,-0.73995006,1781189029274
2079557707,3,9.02805,-1.4059501,-0.75705004,1781189029284
2079557717,3,9.01095,-1.3630501,-0.735,1781189029294
2079557727,3,9.00195,-1.3219501,-0.73800004,1781189029304
2079557737,3,8.997001,-1.284,-0.71805006,1781189029315
2079557747,3,8.99205,-1.27005,-0.71400005,1781189029324
2079557757,3,9.009001,-1.27005,-0.711,1781189029334
2079557768,3,9.045,-1.296,-0.726,1781189029345
2079557778,3,9.076051,-1.3270501,-0.72795004,1781189029354
2079557788,3,9.085951,-1.3770001,-0.75000006,1781189029365
2079557798,3,9.093,-1.41795,-0.77295005,1781189029375
2079557808,3,9.118951,-1.4779501,-0.795,1781189029385
2079557818,3,9.16905,-1.524,-0.81405,1781189029396
2079557828,3,9.220051,-1.58595,-0.79695004,1781189029405
2079557838,3,9.31305,-1.6480501,-0.81705004,1781189029415
2079557848,3,9.37005,-1.69605,-0.78795004,1781189029425
2079557858,3,9.406051,-1.725,-0.79305005,1781189029436
2079557868,3,9.430051,-1.7340001,-0.76605004,1781189029446
2079557878,3,9.45195,-1.7320501,-0.74700004,1781189029456
2079557888,3,9.4470005,-1.7200501,-0.726,1781189029467
2079557899,3,9.39,-1.7050501,-0.68205005,1781189029475
2079557909,3,9.295951,-1.6530001,-0.642,1781189029486
2079557919,3,9.229051,-1.6030501,-0.61095005,1781189029495
2079557929,3,9.14805,-1.5640501,-0.606,1781189029505
2079557939,3,9.11205,-1.5330001,-0.61305004,1781189029515
2079557949,3,9.088051,-1.5160501,-0.63195,1781189029526
2079557959,3,9.094951,-1.5190501,-0.651,1781189029536
2079557969,3,9.1050005,-1.5190501,-0.67995006,1781189029547
2079557979,3,9.126,-1.524,-0.72795004,1781189029556
2079557989,3,9.13305,-1.5259501,-0.76905006,1781189029566
2079557999,3,9.12405,-1.50405,-0.80505,1781189029576
2079558009,3,9.10005,-1.488,-0.80700004,1781189029586
2079558019,3,9.064051,-1.4830501,-0.81195,1781189029596
2079558030,3,9.066,-1.4680501,-0.78300005,1781189029606
2079558040,3,9.049951,-1.4470501,-0.76605004,1781189029616
2079558050,3,9.0400505,-1.45395,-0.75405,1781189029627
2079558060,3,9.094951,-1.46595,-0.74505,1781189029638
2079558070,3,9.162001,-1.4779501,-0.76395005,1781189029647
2079558080,3,9.27495,-1.5330001,-0.80700004,1781189029657
2079558090,3,9.403951,-1.5589501,-0.86205006,1781189029667
2079558100,3,9.49005,-1.59105,-0.89295006,1781189029677
2079558110,3,9.571951,-1.62195,-0.90495,1781189029687
2079558120,3,9.61005,-1.6459501,-0.90300006,1781189029697
2079558130,3,9.61695,-1.64295,-0.86700004,1781189029707
2079558140,3,9.604951,-1.62195,-0.81900007,1781189029717
2079558150,3,9.58395,-1.6030501,-0.76095,1781189029727
2079558160,3,9.526051,-1.5829501,-0.67995006,1781189029736
2079558171,3,9.459001,-1.5469501,-0.61995006,1781189029748
2079558181,3,9.373051,-1.5000001,-0.55995005,1781189029758
2079558191,3,9.25605,-1.4490001,-0.50100005,1781189029767
2079558201,3,9.150001,-1.3800001,-0.47400004,1781189029777
2079558211,3,9.117001,-1.33905,-0.47400004,1781189029788
2079558221,3,9.1050005,-1.31295,-0.50295,1781189029799
2079558231,3,9.082951,-1.29795,-0.55605,1781189029808
2079558241,3,9.094951,-1.26705,-0.59205,1781189029818
2079558251,3,9.05895,-1.2550501,-0.63495004,1781189029829
2079558261,3,9.0379505,-1.2600001,-0.69405,1781189029839
2079558271,3,8.98995,-1.2600001,-0.75000006,1781189029849
2079558281,3,8.962951,-1.27695,-0.80505,1781189029859
2079558291,3,8.94705,-1.3099501,-0.864,1781189029869
2079558302,3,8.950951,-1.34595,-0.93600005,1781189029878
2079558312,3,8.96805,-1.3800001,-0.98205006,1781189029888
2079558322,3,9.00195,-1.416,-1.02195,1781189029899
2079558332,3,9.042001,-1.45605,-1.0540501,1781189029909
2079558342,3,9.13305,-1.50195,-1.07295,1781189029918
2079558352,3,9.19995,-1.5499501,-1.08,1781189029928
2079558362,3,9.28695,-1.58595,-1.0870501,1781189029938
2079558372,3,9.36795,-1.6030501,-1.09695,1781189029948
2079558382,3,9.423,-1.605,-1.092,1781189029959
2079558392,3,9.50205,-1.6189501,-1.0849501,1781189029968
2079558402,3,9.576,-1.6339501,-1.06605,1781189029979
2079558412,3,9.627001,-1.6380001,-1.00605,1781189029990
2079558422,3,9.670051,-1.62405,-0.93405,1781189029999
2079558433,3,9.67905,-1.60695,-0.85005003,1781189030010
2079558443,3,9.64605,-1.57395,-0.78795004,1781189030020
2079558453,3,9.555,-1.5280501,-0.702,1781189030030
2079558463,3,9.4140005,-1.47105,-0.63000005,1781189030040
2079558473,3,9.25605,-1.41795,-0.60300004,1781189030050
2079558483,3,9.097051,-1.368,-0.582,1781189030060
2079558493,3,9.0400505,-1.35105,-0.58395004,1781189030070
2079558503,3,9.009001,-1.35405,-0.61800003,1781189030080
2079558513,3,9.009001,-1.36995,-0.66300005,1781189030090
2079558523,3,9.021001,-1.3729501,-0.71400005,1781189030100
2079558533,3,9.021001,-1.3609501,-0.77295005,1781189030110
2079558543,3,8.997001,-1.3560001,-0.83100003,1781189030120
2079558553,3,8.93505,-1.3219501,-0.83805007,1781189030131
2079558563,3,8.86005,-1.30095,-0.85695004,1781189030140
2079558574,3,8.785951,-1.27695,-0.85995007,1781189030151
2079558584,3,8.752951,-1.26495,-0.85995007,1781189030161
2079558594,3,8.755051,-1.263,-0.86700004,1781189030171
2079558604,3,8.820001,-1.30305,-0.8880001,1781189030181
2079558614,3,8.920051,-1.3630501,-0.924,1781189030191
2079558624,3,9.01605,-1.4299501,-0.9580501,1781189030201
2079558634,3,9.174001,-1.5259501,-1.0009501,1781189030211
2079558644,3,9.315001,-1.5790501,-1.0390501,1781189030223
2079558654,3,9.46605,-1.6339501,-1.0540501,1781189030231
2079558664,3,9.574051,-1.6650001,-1.06605,1781189030241
2079558674,3,9.64605,-1.6819501,-1.04595,1781189030251
2079558684,3,9.651,-1.6860001,-0.9580501,1781189030262
2079558694,3,9.591001,-1.6530001,-0.86205006,1781189030272
2079558705,3,9.519,-1.6140001,-0.76905006,1781189030282
2079558715,3,9.415951,-1.5690001,-0.67995006,1781189030292
2079558725,3,9.30105,-1.5330001,-0.62505,1781189030302
2079558735,3,9.226951,-1.5120001,-0.55605,1781189030312
2079558745,3,9.198001,-1.5090001,-0.54105,1781189030322
2079558755,3,9.165,-1.5190501,-0.54105,1781189030332
2079558765,3,9.14805,-1.5310501,-0.54795,1781189030342
2079558775,3,9.118951,-1.5330001,-0.58005005,1781189030352
2079558785,3,9.066,-1.5310501,-0.60300004,1781189030362
2079558795,3,9.018001,-1.5120001,-0.642,1781189030372
2079558805,3,8.961,-1.4800501,-0.68205005,1781189030382
2079558815,3,8.904,-1.4640001,-0.73305005,1781189030392
2079558825,3,8.86305,-1.44,-0.75705004,1781189030402
2079558836,3,8.83905,-1.452,-0.78105,1781189030413
2079558846,3,8.86995,-1.45395,-0.81405,1781189030423
2079558856,3,8.916,-1.4470501,-0.81900007,1781189030432
2079558866,3,8.97795,-1.46595,-0.855,1781189030443
2079558876,3,9.085951,-1.5330001,-0.89100003,1781189030452
2079558886,3,9.19995,-1.5520501,-0.93600005,1781189030463
2079558896,3,9.283951,-1.5829501,-0.96000004,1781189030473
2079558906,3,9.354,-1.6170001,-0.97005004,1781189030483
2079558916,3,9.406051,-1.6360501,-0.9480001,1781189030493
2079558926,3,9.45195,-1.6480501,-0.90000004,1781189030502
2079558936,3,9.4810505,-1.65795,-0.85995007,1781189030513
2079558946,3,9.523951,-1.6860001,-0.80205005,1781189030523
2079558956,3,9.559951,-1.7149501,-0.76095,1781189030533
2079558967,3,9.574051,-1.725,-0.72300005,1781189030544
2079558977,3,9.580951,-1.7580001,-0.69195,1781189030553
2079558987,3,9.531,-1.7580001,-0.65895003,1781189030564
2079558997,3,9.43995,-1.7340001,-0.62295,1781189030574
2079559007,3,9.342,-1.7149501,-0.582,1781189030584
2079559017,3,9.27705,-1.69605,-0.53400004,1781189030594
2079559027,3,9.2029505,-1.69095,-0.50505,1781189030604
2079559037,3,9.17205,-1.6789501,-0.47895002,1781189030614
2079559047,3,9.17205,-1.6890001,-0.47895002,1781189030624
2079559057,3,9.118951,-1.6819501,-0.50100005,1781189030634
2079559067,3,9.061951,-1.6789501,-0.522,1781189030644
2079559077,3,9.049951,-1.62405,-0.52395004,1781189030654
2079559087,3,9.078,-1.6099501,-0.57000005,1781189030664
2079559097,3,9.118951,-1.593,-0.60795003,1781189030675
2079559108,3,9.198001,-1.6099501,-0.651,1781189030686
2079559118,3,9.294001,-1.5979501,-0.70605004,1781189030695
2079559128,3,9.415951,-1.60695,-0.76395005,1781189030704
2079559138,3,9.50895,-1.605,-0.80895007,1781189030715
2079559148,3,9.552,-1.5690001,-0.83805007,1781189030725
2079559158,3,9.550051,-1.53495,-0.83805007,1781189030735
2079559168,3,9.5140505,-1.49205,-0.81705004,1781189030745
2079559178,3,9.42105,-1.4419501,-0.77295005,1781189030755
2079559188,3,9.373051,-1.38195,-0.74505,1781189030765
2079559198,3,9.31305,-1.3630501,-0.71805006,1781189030775
2079559208,3,9.262951,-1.3440001,-0.67305005,1781189030786
2079559218,3,9.229051,-1.33395,-0.66300005,1781189030796
2079559228,3,9.220051,-1.365,-0.64695,1781189030806
2079559239,3,9.208051,-1.3969501,-0.61305004,1781189030816
2079559249,3,9.220051,-1.43295,-0.58905005,1781189030826
2079559259,3,9.250951,-1.4640001,-0.582,1781189030836
2079559269,3,9.25605,-1.49205,-0.58005005,1781189030846
2079559279,3,9.246,-1.50705,-0.61305004,1781189030856
2079559289,3,9.24405,-1.5330001,-0.651,1781189030866
2079559299,3,9.196051,-1.5310501,-0.67800003,1781189030876
2079559309,3,9.141001,-1.521,-0.74205005,1781189030886
2079559319,3,9.073951,-1.4899501,-0.78495,1781189030896
2079559329,3,9.01095,-1.46595,-0.81195,1781189030907
2079559339,3,8.997001,-1.4610001,-0.85200006,1781189030917
2079559349,3,8.98005,-1.45395,-0.87900007,1781189030927
2079559359,3,8.92695,-1.4490001,-0.90000004,1781189030937
2079559370,3,8.887051,-1.41795,-0.94305,1781189030947
2079559380,3,8.889001,-1.41795,-0.984,1781189030957
2079559390,3,8.84805,-1.42305,-0.99600005,1781189030967
2079559400,3,8.88195,-1.4250001,-1.00995,1781189030977
2079559410,3,8.916,-1.4299501,-1.0510501,1781189030987
2079559420,3,8.98995,-1.4680501,-1.07805,1781189030997
2079559430,3,9.04695,-1.4830501,-1.1040001,1781189031007
2079559440,3,9.094951,-1.4800501,-1.11105,1781189031017
2079559450,3,9.1380005,-1.4640001,-1.1010001,1781189031027
2079559460,3,9.17595,-1.4470501,-1.0510501,1781189031037
2079559470,3,9.214951,-1.416,-0.99105006,1781189031047
2079559480,3,9.262951,-1.404,-0.93105006,1781189031057
2079559490,3,9.35595,-1.4250001,-0.90300006,1781189031068
2079559500,3,9.448951,-1.44,-0.89100003,1781189031077
2079559511,3,9.547951,-1.45395,-0.86895007,1781189031089
2079559521,3,9.576,-1.45905,-0.83295006,1781189031098
2079559531,3,9.543,-1.4490001,-0.81195,1781189031107
2079559541,3,9.44505,-1.4059501,-0.76905006,1781189031119
2079559551,3,9.315001,-1.3420501,-0.72105,1781189031127
2079559561,3,9.18795,-1.29795,-0.67800003,1781189031138
2079559571,3,9.114,-1.284,-0.651,1781189031147
2079559581,3,9.11205,-1.30095,-0.651,1781189031157
2079559591,3,9.162001,-1.3420501,-0.69405,1781189031169
2079559601,3,9.226951,-1.4059501,-0.73995006,1781189031179
2079559611,3,9.282001,-1.43505,-0.78495,1781189031187
2079559621,3,9.35805,-1.49205,-0.86700004,1781189031198
2079559631,3,9.385051,-1.5310501,-0.9480001,1781189031209
2079559642,3,9.37005,-1.55505,-1.0129501,1781189031219
2079559652,3,9.327001,-1.5280501,-1.06095,1781189031229
2079559662,3,9.21195,-1.4899501,-1.07295,1781189031239
2079559672,3,9.117001,-1.41795,-1.06095,1781189031249
2079559682,3,9.0379505,-1.3729501,-1.0180501,1781189031259
2079559692,3,9.00405,-1.3630501,-0.9580501,1781189031268
2079559702,3,8.986951,-1.3420501,-0.915,1781189031278
2079559712,3,9.00195,-1.35105,-0.87900007,1781189031289
2079559722,3,9.057,-1.34595,-0.86895007,1781189031299
2079559732,3,9.15495,-1.3800001,-0.87195003,1781189031308
2079559742,3,9.279,-1.4490001,-0.915,1781189031319
2079559752,3,9.415951,-1.50405,-0.97695005,1781189031329
2079559762,3,9.547951,-1.5640501,-1.01505,1781189031339
2079559773,3,9.59805,-1.5949501,-1.0320001,1781189031350
2079559783,3,9.588,-1.6099501,-0.9889501,1781189031360
2079559793,3,9.540001,-1.59105,-0.9289501,1781189031370
2079559803,3,9.448951,-1.5829501,-0.85995007,1781189031380
2079559813,3,9.387,-1.5810001,-0.77595,1781189031390
2079559823,3,9.354,-1.6189501,-0.69405,1781189031400
2079559833,3,9.354,-1.65795,-0.63705003,1781189031410
2079559843,3,9.35805,-1.7170501,-0.606,1781189031420
2079559853,3,9.354,-1.761,-0.60300004,1781189031430
2079559863,3,9.32505,-1.7509501,-0.615,1781189031440
2079559873,3,9.241051,-1.7680501,-0.64695,1781189031450
2079559883,3,9.16005,-1.7389501,-0.67995006,1781189031461
2079559893,3,9.088051,-1.7170501,-0.68700004,1781189031471
2079559904,3,9.0400505,-1.69095,-0.69705003,1781189031481
2079559914,3,9.018001,-1.674,-0.70395005,1781189031491
2079559924,3,9.02805,-1.6789501,-0.726,1781189031500
2079559934,3,9.02805,-1.6669501,-0.74205005,1781189031511
2079559944,3,9.057,-1.65795,-0.77805007,1781189031523
2079559954,3,9.082951,-1.6480501,-0.79695004,1781189031531
2079559964,3,9.0709505,-1.6290001,-0.84300005,1781189031541
2079559974,3,9.045,-1.605,-0.85995007,1781189031551
2079559984,3,9.0400505,-1.59105,-0.86700004,1781189031561
2079559994,3,9.0070505,-1.5670501,-0.85995007,1781189031571
2079560004,3,9.009001,-1.5589501,-0.86700004,1781189031581
2079560014,3,9.0379505,-1.57095,-0.85200006,1781189031591
2079560024,3,9.097051,-1.5979501,-0.83295006,1781189031602
2079560034,3,9.16905,-1.6380001,-0.80700004,1781189031612
2079560045,3,9.295951,-1.66005,-0.795,1781189031622
2079560055,3,9.42105,-1.7170501,-0.77805007,1781189031632
2079560065,3,9.547951,-1.761,-0.75705004,1781189031642
2079560075,3,9.604951,-1.7890501,-0.71805006,1781189031652
2079560085,3,9.61905,-1.78005,-0.66300005,1781189031662
2079560095,3,9.588,-1.7560501,-0.60795003,1781189031672
2079560105,3,9.52095,-1.72695,-0.546,1781189031682
2079560115,3,9.47295,-1.7050501,-0.47205,1781189031691
2079560125,3,9.43305,-1.6699501,-0.44295,1781189031702
2079560135,3,9.391951,-1.6699501,-0.41700003,1781189031712
2079560145,3,9.3490505,-1.6480501,-0.40695003,1781189031722
2079560155,3,9.342,-1.6380001,-0.42195,1781189031732
2079560165,3,9.366,-1.65795,-0.453,1781189031743
2079560176,3,9.354,-1.6669501,-0.48105,1781189031752
2079560186,3,9.315001,-1.65495,-0.53595,1781189031762
2079560196,3,9.25605,-1.6339501,-0.58005005,1781189031773
2079560206,3,9.17595,-1.61205,-0.61800003,1781189031782
2079560216,3,9.076051,-1.55505,-0.651,1781189031792
2079560226,3,8.98005,-1.5000001,-0.67995006,1781189031802
2079560236,3,8.887051,-1.45395,-0.69705003,1781189031813
2079560246,3,8.78895,-1.4089501,-0.68205005,1781189031823
2079560256,3,8.72595,-1.3630501,-0.68700004,1781189031833
2079560266,3,8.688001,-1.32,-0.71400005,1781189031843
2079560276,3,8.70495,-1.32,-0.735,1781189031853
2079560286,3,8.776951,-1.3249501,-0.76605004,1781189031863
2079560296,3,8.877001,-1.3369501,-0.80205005,1781189031874
2079560307,3,9.02295,-1.3770001,-0.84795004,1781189031884
2079560317,3,9.13605,-1.3939501,-0.89295006,1781189031894
2079560327,3,9.246,-1.41795,-0.92205006,1781189031903
2079560337,3,9.318001,-1.3920001,-0.9289501,1781189031914
2079560347,3,9.363001,-1.3770001,-0.91005003,1781189031924
2079560357,3,9.39,-1.3630501,-0.86205006,1781189031934
2079560367,3,9.385051,-1.38195,-0.80700004,1781189031944
2079560377,3,9.394051,-1.3800001,-0.74205005,1781189031954
2079560387,3,9.406051,-1.3939501,-0.67800003,1781189031964
2079560397,3,9.37005,-1.38705,-0.60105,1781189031974
2079560407,3,9.339001,-1.38495,-0.57000005,1781189031984
2079560417,3,9.294001,-1.365,-0.55995005,1781189031994
2079560427,3,9.250951,-1.3750501,-0.56805,1781189032004
2079560437,3,9.21195,-1.365,-0.60300004,1781189032014
2079560448,3,9.19095,-1.368,-0.63000005,1781189032025
2079560458,3,9.165,-1.36995,-0.66795003,1781189032035
2079560468,3,9.126,-1.3609501,-0.711,1781189032045
2079560478,3,9.073951,-1.34595,-0.73995006,1781189032055
2079560488,3,9.04695,-1.31505,-0.75900006,1781189032065
2079560498,3,9.03495,-1.3060501,-0.81900007,1781189032075
2079560508,3,9.0379505,-1.296,-0.84300005,1781189032086
2079560518,3,9.018001,-1.2889501,-0.87195003,1781189032095
2079560528,3,8.997001,-1.2790501,-0.91995007,1781189032105
2079560538,3,8.974951,-1.2600001,-0.96300006,1781189032116
2079560548,3,8.956051,-1.2390001,-1.0030501,1781189032126
2079560558,3,8.99505,-1.23105,-1.04205,1781189032135
2079560568,3,9.04695,-1.2240001,-1.0680001,1781189032147
2079560579,3,9.114,-1.2430501,-1.08,1781189032156
2079560589,3,9.2029505,-1.26495,-1.0819501,1781189032166
2079560599,3,9.303,-1.31295,-1.0540501,1781189032176
2079560609,3,9.415951,-1.33905,-1.02705,1781189032186
2079560619,3,9.504001,-1.365,-1.0009501,1781189032196
2079560629,3,9.576,-1.404,-0.9580501,1781189032206
2079560639,3,9.627001,-1.4299501,-0.89805007,1781189032216
2079560649,3,9.64305,-1.45605,-0.855,1781189032226
2079560659,3,9.648001,-1.452,-0.79995006,1781189032239
2079560669,3,9.603001,-1.4470501,-0.75900006,1781189032248
2079560679,3,9.535951,-1.42095,-0.726,1781189032257
2079560689,3,9.45705,-1.38705,-0.69900006,1781189032267
2079560699,3,9.387,-1.3750501,-0.68505,1781189032277
2079560710,3,9.32505,-1.3630501,-0.67995006,1781189032287
2079560720,3,9.258,-1.365,-0.67995006,1781189032297
2079560730,3,9.226951,-1.3560001,-0.69195,1781189032307
2079560740,3,9.19095,-1.3560001,-0.72105,1781189032317
2079560750,3,9.162001,-1.35405,-0.75195,1781189032327
2079560760,3,9.14805,-1.3630501,-0.77805007,1781189032337
2079560770,3,9.14505,-1.3770001,-0.83100003,1781189032347
2079560780,3,9.14805,-1.3990501,-0.89595,1781189032357
2079560790,3,9.114,-1.401,-0.93405,1781189032367
2079560800,3,9.102,-1.38495,-0.96300006,1781189032377
2079560810,3,9.085951,-1.3800001,-0.99600005,1781189032387
2079560820,3,9.094951,-1.38495,-1.0200001,1781189032397
2079560830,3,9.114,-1.4130001,-1.02495,1781189032407
2079560841,3,9.14805,-1.42305,-1.01505,1781189032419
2079560851,3,9.21195,-1.4440501,-1.0320001,1781189032429
2079560861,3,9.267,-1.4830501,-1.0489501,1781189032438
2079560871,3,9.294001,-1.4970001,-1.06305,1781189032448
2079560881,3,9.330001,-1.50705,-1.0339501,1781189032458
2079560891,3,9.379951,-1.5090001,-0.99105006,1781189032468
2079560901,3,9.411,-1.5520501,-0.9580501,1781189032480
2079560911,3,9.43305,-1.5520501,-0.89595,1781189032489
2079560921,3,9.4470005,-1.5520501,-0.83805007,1781189032497
2079560931,3,9.42105,-1.5520501,-0.75195,1781189032507
2079560941,3,9.397051,-1.53495,-0.69705003,1781189032517
2079560951,3,9.361051,-1.5259501,-0.64395005,1781189032528
2079560961,3,9.283951,-1.50705,-0.59400004,1781189032539
2079560971,3,9.241051,-1.488,-0.57495004,1781189032547
2079560982,3,9.220051,-1.4610001,-0.57195,1781189032559
2079560992,3,9.19305,-1.473,-0.59400004,1781189032569
2079561002,3,9.19095,-1.47105,-0.63000005,1781189032578
2079561012,3,9.18105,-1.4899501,-0.67095006,1781189032589
2079561022,3,9.19305,-1.4830501,-0.71805006,1781189032600
2079561032,3,9.18105,-1.4899501,-0.75705004,1781189032608
2079561042,3,9.1380005,-1.4830501,-0.78105,1781189032618
2079561052,3,9.093,-1.4830501,-0.82095003,1781189032628
2079561062,3,9.052051,-1.46595,-0.83100003,1781189032638
2079561072,3,9.052051,-1.45605,-0.84795004,1781189032649
2079561082,3,9.057,-1.45395,-0.85200006,1781189032658
2079561092,3,9.057,-1.4640001,-0.86205006,1781189032669
2079561102,3,9.117001,-1.46595,-0.88095003,1781189032681
2079561113,3,9.21,-1.50705,-0.90300006,1781189032691
2079561123,3,9.29895,-1.53795,-0.92700005,1781189032700
2079561133,3,9.339001,-1.5619501,-0.94095004,1781189032711
2079561143,3,9.4140005,-1.5619501,-0.94605005,1781189032720
2079561153,3,9.47805,-1.605,-0.94305,1781189032730
2079561163,3,9.50895,-1.6360501,-0.924,1781189032740
2079561173,3,9.507001,-1.6339501,-0.89595,1781189032750
2079561183,3,9.50205,-1.6309501,-0.82605004,1781189032761
2079561193,3,9.483001,-1.6030501,-0.78105,1781189032770
2079561203,3,9.45195,-1.6140001,-0.72795004,1781189032780
2079561213,3,9.39,-1.61205,-0.67305005,1781189032791
2079561223,3,9.31995,-1.59105,-0.61305004,1781189032800
2079561233,3,9.259951,-1.57395,-0.56805,1781189032810
2079561244,3,9.20505,-1.5790501,-0.55095005,1781189032821
2079561254,3,9.15495,-1.5589501,-0.55095005,1781189032831
2079561264,3,9.10005,-1.55505,-0.55305004,1781189032841
2079561274,3,9.057,-1.54305,-0.56295,1781189032851
2079561284,3,9.02595,-1.54005,-0.58005005,1781189032861
2079561294,3,9.02295,-1.5310501,-0.62295,1781189032871
2079561304,3,9.01395,-1.524,-0.67800003,1781189032881
2079561314,3,9.021001,-1.524,-0.711,1781189032891
2079561324,3,9.045,-1.5090001,-0.76095,1781189032901
2079561334,3,9.097051,-1.5160501,-0.82395005,1781189032911
2079561344,3,9.121051,-1.5090001,-0.86895007,1781189032921
2079561354,3,9.15705,-1.50405,-0.91005003,1781189032931
2079561364,3,9.17895,-1.4899501,-0.93405,1781189032942
2079561374,3,9.20505,-1.49205,-0.9670501,1781189032952
2079561385,3,9.208051,-1.47105,-0.96495,1781189032962
2079561395,3,9.17595,-1.43505,-0.93405,1781189032972
2079561405,3,9.14295,-1.42305,-0.90300006,1781189032982
2079561415,3,9.13095,-1.42095,-0.87195003,1781189032992
2079561425,3,9.162001,-1.4280001,-0.84495,1781189033002
2079561435,3,9.214951,-1.45605,-0.80700004,1781189033012
2079561445,3,9.27,-1.50705,-0.77805007,1781189033022
2079561455,3,9.33495,-1.53795,-0.75705004,1781189033032
2079561465,3,9.378,-1.5829501,-0.75900006,1781189033042
2079561475,3,9.385051,-1.58595,-0.75705004,1781189033052
2079561485,3,9.34605,-1.57605,-0.74205005,1781189033062
2079561495,3,9.330001,-1.5589501,-0.73005,1781189033072
2079561505,3,9.295951,-1.5450001,-0.726,1781189033082
2079561516,3,9.23595,-1.5259501,-0.67995006,1781189033093
2079561526,3,9.174001,-1.50405,-0.63705003,1781189033102
2079561536,3,9.109051,-1.488,-0.62700003,1781189033113
2079561546,3,9.045,-1.45605,-0.62295,1781189033123
2079561556,3,9.00405,-1.4440501,-0.62700003,1781189033133
2079561566,3,8.997001,-1.452,-0.651,1781189033143
2079561576,3,8.997001,-1.452,-0.67995006,1781189033155
2079561586,3,9.0070505,-1.4419501,-0.72105,1781189033163
2079561596,3,9.018001,-1.437,-0.77295005,1781189033174
2079561606,3,9.02595,-1.437,-0.82605004,1781189033183
2079561616,3,9.01095,-1.4110501,-0.82095003,1781189033193
2079561626,3,9.00405,-1.3750501,-0.82395005,1781189033203
2079561636,3,9.01095,-1.365,-0.80895007,1781189033214
2079561647,3,9.049951,-1.3560001,-0.82395005,1781189033223
2079561657,3,9.106951,-1.3729501,-0.82395005,1781189033234
2079561667,3,9.16695,-1.38705,-0.84795004,1781189033244
2079561677,3,9.24405,-1.416,-0.88605005,1781189033253
2079561687,3,9.31995,-1.42305,-0.89100003,1781189033264
2079561697,3,9.402,-1.452,-0.88605005,1781189033274
2079561707,3,9.47595,-1.4640001,-0.86700004,1781189033284
2079561717,3,9.523951,-1.45395,-0.82605004,1781189033294
2079561727,3,9.58605,-1.4610001,-0.78795004,1781189033304
2079561737,3,9.65505,-1.473,-0.75000006,1781189033314
2079561747,3,9.66705,-1.473,-0.69195,1781189033324
2079561757,3,9.61695,-1.4830501,-0.66105,1781189033335
2079561767,3,9.538051,-1.45905,-0.60795003,1781189033345
2079561778,3,9.399,-1.4130001,-0.57000005,1781189033355
2079561788,3,9.291,-1.36995,-0.54105,1781189033366
2079561798,3,9.196051,-1.3609501,-0.546,1781189033375
2079561808,3,9.118951,-1.33905,-0.56505,1781189033385
2079561818,3,9.076051,-1.34595,-0.58395004,1781189033395
2079561828,3,9.094951,-1.3729501,-0.62295,1781189033404
2079561838,3,9.121051,-1.401,-0.675,1781189033415
2079561848,3,9.184051,-1.4299501,-0.75000006,1781189033425
2079561858,3,9.25605,-1.452,-0.83100003,1781189033435
2079561868,3,9.318001,-1.47105,-0.92205006,1781189033445
2079561878,3,9.291,-1.46595,-0.96300006,1781189033456
2079561888,3,9.208051,-1.41795,-0.99600005,1781189033465
2079561898,3,9.10005,-1.36995,-0.95295006,1781189033475
2079561908,3,8.98995,-1.30305,-0.93600005,1781189033486
2079561919,3,8.904,-1.263,-0.89805007,1781189033496
2079561929,3,8.88195,-1.23105,-0.89295006,1781189033506
2079561939,3,8.88,-1.2360001,-0.86895007,1781189033516
2079561949,3,8.901,-1.2529501,-0.88095003,1781189033525
2079561959,3,8.929951,-1.284,-0.89100003,1781189033535
2079561969,3,8.985001,-1.30095,-0.90300006,1781189033547
2079561979,3,9.02805,-1.3270501,-0.90795004,1781189033556
2079561989,3,9.117001,-1.3440001,-0.89295006,1781189033567
2079561999,3,9.222,-1.4089501,-0.86700004,1781189033576
2079562009,3,9.30105,-1.4250001,-0.81405,1781189033587
2079562019,3,9.339001,-1.45605,-0.771,1781189033597
2079562029,3,9.411,-1.5090001,-0.72795004,1781189033606
2079562039,3,9.4470005,-1.5520501,-0.75705004,1781189033617
2079562050,3,9.435,-1.557,-0.78105,1781189033627
2079562060,3,9.4140005,-1.57605,-0.81900007,1781189033637
2079562070,3,9.3820505,-1.605,-0.84300005,1781189033647
2079562080,3,9.351001,-1.6140001,-0.87600005,1781189033657
2079562090,3,9.32505,-1.6360501,-0.90495,1781189033667
2079562100,3,9.259951,-1.6459501,-0.915,1781189033677
2079562110,3,9.19305,-1.6530001,-0.92205006,1781189033687
2079562120,3,9.14505,-1.6530001,-0.92700005,1781189033697
2079562130,3,9.118951,-1.6669501,-0.94095004,1781189033707
2079562140,3,9.13095,-1.6650001,-0.97005004,1781189033717
2079562150,3,9.174001,-1.6789501,-1.0200001,1781189033727
2079562160,3,9.208051,-1.69305,-1.06605,1781189033736
2079562170,3,9.23595,-1.6530001,-1.0870501,1781189033746
2079562181,3,9.234,-1.60695,-1.0819501,1781189033757
2079562191,3,9.232051,-1.54305,-1.0320001,1781189033769
2079562201,3,9.220051,-1.47105,-0.98205006,1781189033779
2079562211,3,9.19095,-1.42305,-0.90495,1781189033787
2079562221,3,9.196051,-1.38195,-0.84300005,1781189033798
2079562231,3,9.226951,-1.3729501,-0.79005,1781189033807
2079562241,3,9.31995,-1.404,-0.75900006,1781189033819
2079562251,3,9.435,-1.4779501,-0.75405,1781189033829
2079562261,3,9.556951,-1.5469501,-0.77595,1781189033837
2079562271,3,9.639001,-1.61205,-0.78495,1781189033849
2079562281,3,9.615001,-1.6500001,-0.79695004,1781189033859
2079562291,3,9.568951,-1.6699501,-0.75900006,1781189033869
2079562301,3,9.483001,-1.6620001,-0.70905006,1781189033878
2079562312,3,9.385051,-1.6530001,-0.64395005,1781189033889
2079562322,3,9.265051,-1.6530001,-0.57495004,1781189033898
2079562332,3,9.16005,-1.65495,-0.50295,1781189033909
2079562342,3,9.09,-1.66005,-0.46695003,1781189033919
2079562352,3,9.02295,-1.65495,-0.46500003,1781189033927
2079562362,3,8.98995,-1.6699501,-0.48600003,1781189033940
2079562372,3,8.97795,-1.6819501,-0.55605,1781189033948
2079562382,3,9.00195,-1.713,-0.60300004,1781189033958
2079562392,3,9.042001,-1.7320501,-0.70605004,1781189033968
2079562402,3,9.081,-1.7490001,-0.771,1781189033978
2079562412,3,9.126,-1.7410501,-0.82395005,1781189033988
2079562422,3,9.162001,-1.72695,-0.864,1781189033998
2079562432,3,9.232051,-1.7200501,-0.86895007,1781189034010
2079562442,3,9.33495,-1.713,-0.87900007,1781189034020
2079562453,3,9.424951,-1.6890001,-0.86700004,1781189034030
2079562463,3,9.507001,-1.6669501,-0.85995007,1781189034040
2079562473,3,9.535951,-1.6309501,-0.86700004,1781189034050
2079562483,3,9.562051,-1.5670501,-0.83805007,1781189034060
2079562493,3,9.531,-1.488,-0.84495,1781189034070
2079562503,3,9.46905,-1.4089501,-0.82395005,1781189034080
2079562513,3,9.399,-1.3420501,-0.80700004,1781189034090
2079562523,3,9.291,-1.2940501,-0.76095,1781189034100
2079562533,3,9.19095,-1.2550501,-0.70395005,1781189034110
2079562543,3,9.150001,-1.2409501,-0.64905006,1781189034120
2079562553,3,9.129001,-1.26495,-0.615,1781189034130
2079562563,3,9.14295,-1.32,-0.60300004,1781189034140
2079562573,3,9.15705,-1.3770001,-0.606,1781189034150
2079562584,3,9.1380005,-1.416,-0.60795003,1781189034161
2079562594,3,9.114,-1.45395,-0.61305004,1781189034171
2079562604,3,9.0709505,-1.4779501,-0.615,1781189034181
2079562614,3,9.00195,-1.4950501,-0.62505,1781189034191
2079562624,3,8.974951,-1.50705,-0.651,1781189034201
2079562634,3,8.961,-1.5190501,-0.67995006,1781189034211
2079562644,3,8.97795,-1.54305,-0.73005,1781189034221
2079562654,3,9.018001,-1.5520501,-0.76395005,1781189034232
2079562664,3,9.052051,-1.5520501,-0.80205005,1781189034242
2079562674,3,9.097051,-1.5330001,-0.84300005,1781189034251
2079562684,3,9.150001,-1.49205,-0.88395005,1781189034262
2079562694,3,9.18105,-1.4779501,-0.89595,1781189034271
2079562704,3,9.20505,-1.4250001,-0.90795004,1781189034282
2079562715,3,9.21,-1.4130001,-0.89595,1781189034292
2079562725,3,9.232051,-1.401,-0.91995007,1781189034302
2079562735,3,9.222,-1.3920001,-0.90300006,1781189034312
2079562745,3,9.196051,-1.38705,-0.91200006,1781189034322
2079562755,3,9.17595,-1.3990501,-0.93105006,1781189034332
2079562765,3,9.13305,-1.3969501,-0.96000004,1781189034342
2079562775,3,9.082951,-1.38705,-0.98205006,1781189034352
2079562785,3,9.049951,-1.3729501,-0.9889501,1781189034362
2079562795,3,9.04695,-1.38705,-0.97905004,1781189034372
2079562805,3,9.057,-1.38705,-0.95295006,1781189034382
2079562815,3,9.097051,-1.3939501,-0.90300006,1781189034392
2079562825,3,9.13605,-1.4110501,-0.85200006,1781189034402
2079562835,3,9.16005,-1.38705,-0.79005,1781189034413
2079562845,3,9.226951,-1.3630501,-0.75705004,1781189034423
2079562856,3,9.27495,-1.3630501,-0.71805006,1781189034433
2079562866,3,9.295951,-1.3560001,-0.68205005,1781189034443
2079562876,3,9.306001,-1.35405,-0.66795003,1781189034452
2079562886,3,9.31305,-1.34895,-0.64905006,1781189034462
2079562896,3,9.283951,-1.31505,-0.64905006,1781189034474
2079562906,3,9.217051,-1.29795,-0.61800003,1781189034483
2079562916,3,9.17595,-1.30095,-0.61995006,1781189034493
2079562926,3,9.126,-1.3080001,-0.642,1781189034502
2079562936,3,9.085951,-1.30305,-0.64905006,1781189034513
2079562946,3,9.0709505,-1.3219501,-0.675,1781189034523
2079562956,3,9.1050005,-1.3369501,-0.72795004,1781189034533
2079562966,3,9.15495,-1.3800001,-0.77805007,1781189034543
2079562976,3,9.18105,-1.401,-0.81405,1781189034553
2079562987,3,9.198001,-1.43505,-0.86895007,1781189034564
2079562997,3,9.196051,-1.46595,-0.94305,1781189034574
2079563007,3,9.15705,-1.4610001,-0.99405,1781189034584
2079563017,3,9.13605,-1.44,-1.04595,1781189034594
2079563027,3,9.14295,-1.41795,-1.06605,1781189034603
2079563037,3,9.129001,-1.404,-1.06095,1781189034614
2079563047,3,9.109051,-1.41795,-1.044,1781189034624
2079563057,3,9.11205,-1.4110501,-0.99105006,1781189034634
2079563067,3,9.13305,-1.42095,-0.95100003,1781189034644
2079563077,3,9.184051,-1.43295,-0.93600005,1781189034654
2079563087,3,9.25605,-1.4419501,-0.92205006,1781189034664
2079563097,3,9.31305,-1.4680501,-0.90795004,1781189034674
2079563107,3,9.354,-1.4830501,-0.90795004,1781189034686
2079563118,3,9.39,-1.47105,-0.87900007,1781189034695
2079563128,3,9.424951,-1.4640001,-0.82605004,1781189034705
2079563138,3,9.46605,-1.473,-0.77805007,1781189034715
2079563148,3,9.504001,-1.4970001,-0.72795004,1781189034724
2079563158,3,9.519,-1.50405,-0.68205005,1781189034735
2079563168,3,9.555,-1.5139501,-0.63900006,1781189034745
2079563178,3,9.574051,-1.5280501,-0.63705003,1781189034755
2079563188,3,9.531,-1.54005,-0.63495004,1781189034764
2079563198,3,9.45195,-1.5310501,-0.63000005,1781189034775
2079563208,3,9.35595,-1.50405,-0.64695,1781189034785
2079563218,3,9.27705,-1.5000001,-0.67305005,1781189034796
2079563228,3,9.253051,-1.50705,-0.70395005,1781189034806
2079563238,3,9.259951,-1.5259501,-0.73800004,1781189034816
2079563249,3,9.28695,-1.5589501,-0.75705004,1781189034826
2079563259,3,9.327001,-1.5810001,-0.79695004,1781189034836
2079563269,3,9.361051,-1.6000501,-0.82095003,1781189034846
2079563279,3,9.32505,-1.5790501,-0.85200006,1781189034856
2079563289,3,9.29895,-1.5589501,-0.87600005,1781189034866
2079563299,3,9.241051,-1.54005,-0.89805007,1781189034876
2079563309,3,9.17895,-1.5139501,-0.87405,1781189034886
2079563319,3,9.15705,-1.5090001,-0.84000003,1781189034896
2079563329,3,9.16695,-1.5190501,-0.82095003,1781189034906
2079563339,3,9.19095,-1.54005,-0.81405,1781189034917
2079563349,3,9.19305,-1.5450001,-0.82095003,1781189034927
2079563359,3,9.22395,-1.5450001,-0.83100003,1781189034937
2079563369,3,9.241051,-1.557,-0.87405,1781189034948
2079563379,3,9.27,-1.57395,-0.90300006,1781189034957
2079563390,3,9.31305,-1.6030501,-0.95505005,1781189034967
2079563400,3,9.35595,-1.6290001,-0.94605005,1781189034977
2079563410,3,9.363001,-1.6459501,-0.91200006,1781189034987
2079563420,3,9.366,-1.64295,-0.86895007,1781189034997
