icm4n607_acc,iven_sense,2026-06-11_21-44-38.484_Active 10 Pro
imuTimestamp,accuracy(more=better),acc_x[m/s^2],acc_y[m/s^2],acc_z[m/s^2],utcTimestamp(millis)
2094010102,3,0.22500001,4.533,8.625,1781203481679
2094010112,3,0.21495001,4.51095,8.635051,1781203481689
2094010122,3,0.20505,4.48005,8.58195,1781203481699
2094010133,3,0.21000001,4.46595,8.496,1781203481710
2094010143,3,0.27,4.425,8.493,1781203481720
2094010153,3,0.29205,4.368,8.565001,1781203481729
2094010163,3,0.29895002,4.32705,8.647051,1781203481739
2094010173,3,0.26505002,4.3099504,8.785951,1781203481749
2094010183,3,0.21300001,4.34595,8.956051,1781203481758
2094010193,3,0.16005,4.39395,9.051001,1781203481771
2094010203,3,0.15495001,4.45095,9.075001,1781203481779
2094010213,3,0.20295002,4.46595,9.087001,1781203481789
2094010223,3,0.27195,4.4539504,9.09195,1781203481800
2094010233,3,0.31305,4.4110503,9.172951,1781203481811
2094010243,3,0.28005,4.39395,9.34605,1781203481820
2094010253,3,0.246,4.3699503,9.43395,1781203481829
2094010264,3,0.21300001,4.35795,9.460951,1781203481841
2094010274,3,0.201,4.401,9.42,1781203481851
2094010284,3,0.22200002,4.3770003,9.24495,1781203481860
2094010294,3,0.29895002,4.32,9.019951,1781203481871
2094010304,3,0.36105,4.28595,8.922001,1781203481881
2094010314,3,0.36795002,4.296,8.90505,1781203481890
2094010324,3,0.35895002,4.31295,8.901,1781203481902
2094010334,3,0.354,4.3050003,8.92905,1781203481911
2094010344,3,0.33,4.3219504,8.946,1781203481921
2094010354,3,0.29595003,4.341,8.934,1781203481932
2094010364,3,0.27495003,4.3699503,8.97,1781203481941
2094010374,3,0.25800002,4.3699503,8.946,1781203481951
2094010384,3,0.26805001,4.3170004,8.88405,1781203481961
2094010394,3,0.21495001,4.2670503,8.78295,1781203481970
2094010405,3,0.18900001,4.1860504,8.68305,1781203481982
2094010415,3,0.23205002,4.08495,8.5990505,1781203481993
2094010425,3,0.27,4.05195,8.57295,1781203482002
2094010435,3,0.29205,4.08495,8.601001,1781203482012
2094010445,3,0.28905,4.1740503,8.68305,1781203482021
2094010455,3,0.32295,4.1950502,8.802,1781203482031
2094010465,3,0.32295,4.2000003,8.971951,1781203482042
2094010475,3,0.31800002,4.224,9.111,1781203482052
2094010485,3,0.31605002,4.25295,9.229051,1781203482062
2094010495,3,0.26295,4.31295,9.34095,1781203482072
2094010505,3,0.201,4.296,9.40095,1781203482082
2094010515,3,0.20295002,4.31505,9.38895,1781203482092
2094010525,3,0.17400001,4.368,9.336,1781203482102
2094010536,3,0.13800001,4.45095,9.24495,1781203482112
2094010546,3,0.11895001,4.5019503,9.118051,1781203482122
2094010556,3,0.13095,4.49205,8.995951,1781203482132
2094010566,3,0.14295001,4.5019503,8.89305,1781203482142
2094010576,3,0.15300001,4.4869504,8.754001,1781203482152
2094010586,3,0.141,4.4370003,8.653951,1781203482162
2094010596,3,0.16005,4.3840504,8.69505,1781203482172
2094010606,3,0.14595,4.3699503,8.778001,1781203482182
2094010616,3,0.102000006,4.3390503,8.79,1781203482194
2094010626,3,0.08295,4.33605,8.78295,1781203482202
2094010636,3,0.11400001,4.293,8.733001,1781203482213
2094010646,3,0.177,4.25295,8.56095,1781203482224
2094010656,3,0.14595,4.25505,8.637,1781203482234
2094010666,3,0.13800001,4.26195,8.773951,1781203482243
2094010677,3,0.117000006,4.2169504,8.941051,1781203482253
2094010687,3,0.14295001,4.2070503,9.160951,1781203482264
2094010697,3,0.09,4.2379503,9.384001,1781203482275
2094010707,3,0.105000004,4.33605,9.576,1781203482285
2094010717,3,0.19605,4.4110503,9.669001,1781203482295
2094010727,3,0.342,4.46805,9.597,1781203482303
2094010737,3,0.44700003,4.545,9.406051,1781203482315
2094010747,3,0.555,4.5349503,9.219001,1781203482325
2094010757,3,0.73005,4.557,9.121051,1781203482335
2094010767,3,0.79695004,4.5930004,8.86905,1781203482345
2094010777,3,1.0309501,4.5739503,8.623051,1781203482355
2094010787,3,1.1580001,4.3890004,8.877001,1781203482365
2094010797,3,1.2400501,4.3219504,9.243,1781203482375
2094010808,3,1.16805,4.2979503,9.87705,1781203482385
2094010818,3,1.11,4.38,10.21695,1781203482396
2094010828,3,1.11,4.6069503,10.2630005,1781203482405
2094010838,3,1.125,5.0070004,10.50195,1781203482415
2094010848,3,1.0360501,5.6650505,10.404,1781203482426
2094010858,3,1.1080501,5.907,10.20495,1781203482436
2094010868,3,1.36395,5.73495,9.813001,1781203482446
2094010878,3,1.32105,5.52405,9.0390005,1781203482455
2094010888,3,0.95205003,5.4139504,8.70195,1781203482466
2094010898,3,0.555,5.7400503,8.769,1781203482476
2094010908,3,0.27195,5.991,8.776051,1781203482486
2094010918,3,0.39495003,6.0030003,8.71395,1781203482496
2094010928,3,0.282,6.1969504,8.629951,1781203482506
2094010938,3,0.079050004,6.19005,8.500951,1781203482517
2094010949,3,0.016050002,6.16095,8.46195,1781203482528
2094010959,3,-0.14595,6.01695,8.500951,1781203482540
2094010969,3,-0.49995002,5.8279505,8.82405,1781203482548
2094010979,3,-0.84195006,5.5069504,9.00105,1781203482557
2094010989,3,-1.16505,5.2390504,9.274051,1781203482567
2094010999,3,-1.51995,5.076,9.32205,1781203482577
2094011009,3,-1.8690001,4.914,8.98005,1781203482587
2094011019,3,-2.23095,4.6480503,8.529,1781203482597
2094011029,3,-2.64,4.35795,8.224951,1781203482607
2094011039,3,-3.1309502,4.2379503,8.259001,1781203482618
2094011049,3,-3.5670002,4.07595,8.623051,1781203482627
2094011059,3,-4.077,4.104,8.90505,1781203482637
2094011069,3,-4.44105,4.2340503,8.92905,1781203482648
2094011079,3,-4.63905,4.2169504,8.6970005,1781203482658
2094011090,3,-4.965,4.39395,7.73505,1781203482668
2094011100,3,-5.1060004,4.4610004,7.038,1781203482678
2094011110,3,-5.2120504,4.36005,6.93195,1781203482691
2094011120,3,-5.1880503,4.31505,6.98295,1781203482697
2094011130,3,-5.4529505,4.293,6.6400504,1781203482707
2094011140,3,-6.16695,4.21395,6.4180503,1781203482718
2094011150,3,-6.62895,4.06395,7.1070004,1781203482728
2094011160,3,-6.7369504,4.1779504,7.4659505,1781203482737
2094011170,3,-6.8640003,4.8580503,7.1239505,1781203482748
2094011180,3,-6.97095,5.52405,6.4030504,1781203482757
2094011190,3,-7.0480504,6.0750003,5.7640505,1781203482767
2094011200,3,-7.3999505,6.0079503,5.87895,1781203482779
2094011210,3,-7.7779503,5.3920503,6.93195,1781203482788
2094011221,3,-8.06595,4.5880504,7.8930006,1781203482799
2094011231,3,-8.125051,3.8719501,8.845051,1781203482808
2094011241,3,-8.034,3.31695,9.255,1781203482818
2094011251,3,-7.7179503,3.2730002,8.43795,1781203482829
2094011261,3,-7.1130004,3.357,6.6330004,1781203482838
2094011271,3,-6.9619503,3.5370002,5.18895,1781203482849
2094011281,3,-6.912,3.42705,4.51905,1781203482859
2094011291,3,-6.9090004,3.6160502,5.20095,1781203482869
2094011301,3,-7.0960503,3.8100002,6.97305,1781203482879
2094011311,3,-7.0189505,3.85995,8.508,1781203482889
2094011321,3,-7.1200504,3.8719501,9.18105,1781203482899
2094011331,3,-6.97095,3.726,8.508,1781203482909
2094011341,3,-6.71505,4.06395,7.05495,1781203482919
2094011351,3,-6.4350004,4.42005,5.6080503,1781203482931
2094011362,3,-6.3180003,4.67595,4.5430503,1781203482940
2094011372,3,-6.3679504,4.49895,4.0740004,1781203482949
2094011382,3,-6.30105,3.8220003,4.3710003,1781203482959
2094011392,3,-6.4879503,3.4819503,5.2450504,1781203482970
2094011402,3,-6.7540503,3.4939501,6.1399503,1781203482979
2094011412,3,-6.80595,3.86505,6.6280503,1781203482989
2094011422,3,-6.7939506,4.4440503,6.4680004,1781203483000
2094011432,3,-6.8920503,4.93695,6.162,1781203483010
2094011442,3,-6.6940503,5.0880003,5.841,1781203483021
2094011452,3,-6.3750005,4.93305,5.6590505,1781203483030
2094011462,3,-6.31995,4.48995,5.2450504,1781203483041
2094011472,3,-6.30105,4.176,5.06505,1781203483050
2094011482,3,-6.40605,4.0950003,5.3239503,1781203483060
2094011493,3,-6.564,3.9799502,5.3380504,1781203483070
2094011503,3,-6.59805,4.104,4.8850503,1781203483080
2094011513,3,-6.47805,4.3650002,4.25805,1781203483090
2094011523,3,-6.50505,4.5259504,3.51795,1781203483100
2094011533,3,-6.4230003,4.74405,2.9509501,1781203483110
2094011543,3,-6.3469505,5.004,2.7829502,1781203483121
2094011553,3,-6.53805,5.26095,3.08505,1781203483131
2094011563,3,-6.576,5.45205,3.7219503,1781203483141
2094011573,3,-6.4420505,5.6460004,4.263,1781203483151
2094011583,3,-6.2790003,5.9290504,4.04295,1781203483161
2094011593,3,-6.5809503,7.04895,3.1900501,1781203483171
2094011603,3,-6.46395,6.9630003,2.12505,1781203483181
2094011613,3,-6.1650004,6.4750504,2.05095,1781203483191
2094011623,3,-6.2320504,6.0150003,2.601,1781203483201
2094011634,3,-6.2749505,5.4349504,3.4750502,1781203483212
2094011644,3,-6.0540004,5.71605,3.73095,1781203483222
2094011654,3,-6.01905,6.3499503,3.9949503,1781203483232
2094011664,3,-6.43305,6.1800003,3.9559503,1781203483242
2094011674,3,-6.2790003,6.0529504,3.6360002,1781203483252
2094011684,3,-6.339,6.63,3.3769503,1781203483262
2094011694,3,-6.06405,7.1640005,3.387,1781203483272
2094011704,3,-5.5729504,7.25295,3.6499503,1781203483282
2094011714,3,-5.5519505,7.43205,3.2380502,1781203483292
2094011724,3,-5.748,7.2769504,2.637,1781203483302
2094011734,3,-5.9440503,7.4230504,1.8520501,1781203483312
2094011744,3,-6.0259504,8.064,0.74295,1781203483321
2094011754,3,-6.3130503,8.656051,0.09705,1781203483332
2094011765,3,-6.5020504,8.919001,0.11100001,1781203483341
2094011775,3,-6.6769505,9.148951,0.55395,1781203483352
2094011785,3,-6.7660503,9.03195,1.2030001,1781203483361
2094011795,3,-7.04295,8.896951,2.1460502,1781203483372
2094011805,3,-7.2970505,8.884951,2.7949502,1781203483381
2094011815,3,-7.4050503,8.63595,2.6440501,1781203483392
2094011825,3,-7.3159504,8.410951,1.9960501,1781203483403
2094011835,3,-6.8250003,7.7820005,1.24905,1781203483411
2094011845,3,-6.28905,7.3030505,-0.04605,1781203483422
2094011855,3,-6.696,7.4869504,-0.49800003,1781203483434
2094011865,3,-6.52605,7.5280504,0.19005,1781203483441
2094011906,3,-5.61105,6.78105,1.3300501,1781203483481
2094011916,3,-4.9339504,6.537,1.4830501,1781203483491
2094011926,3,-4.8499503,6.88395,1.8880501,1781203483501
2094011936,3,-4.24905,7.22205,2.8290002,1781203483511
2094011946,3,-3.7780502,7.6500006,3.1279502,1781203483522
2094011956,3,-3.7699502,8.42595,2.874,1781203483534
2094011966,3,-3.8710501,8.59305,1.6200001,1781203483542
2094011976,3,-3.72705,8.445001,0.46605003,1781203483553
2094011986,3,-3.9,8.689051,0.18105,1781203483563
2094011996,3,-4.22805,8.48295,0.669,1781203483572
2094012006,3,-4.4380503,8.292001,1.5340501,1781203483582
2094012016,3,-4.7260504,8.13795,1.74195,1781203483593
2094012026,3,-5.09205,8.30805,1.7040001,1781203483603
2094012037,3,-5.2639503,8.229,1.70595,1781203483613
2094012047,3,-5.53695,8.3869505,1.9620001,1781203483623
2094012057,3,-5.8099504,8.502001,1.3039501,1781203483633
2094012067,3,-6.1930504,8.50695,0.85095006,1781203483643
2094012077,3,-6.0930004,8.052,1.3230001,1781203483653
2094012087,3,-6.19605,7.6260004,1.6510501,1781203483663
2094012097,3,-6.4999504,7.4370003,1.2580501,1781203483678
2094012107,3,-6.43305,7.4230504,0.81795,1781203483683
2094012117,3,-6.25605,7.5810003,0.33900002,1781203483693
2094012127,3,-6.102,8.083051,-0.37800002,1781203483704
2094012137,3,-6.18795,8.731951,-1.38405,1781203483713
2094012147,3,-5.87505,8.577001,-1.6279501,1781203483724
2094012157,3,-5.8290005,8.502001,-1.8700501,1781203483734
2094012167,3,-6.1860003,8.34195,-2.3730001,1781203483744
2094012178,3,-6.3490505,8.364,-1.91295,1781203483754
2094012188,3,-6.6000004,8.89305,-1.113,1781203483764
2094012198,3,-6.873,9.184951,-0.63195,1781203483774
2094012208,3,-7.1410503,9.618,-0.12195001,1781203483784
2094012218,3,-7.8790503,9.88605,-0.60105,1781203483794
2094012228,3,-8.68305,9.654,0.27405003,1781203483804
2094012238,3,-9.17205,9.831,0.16605,1781203483814
2094012248,3,-8.62605,9.90495,-1.5109501,1781203483824
2094012258,3,-8.908051,10.132951,-1.6279501,1781203483834
2094012268,3,-8.508,10.593,-2.1430502,1781203483845
2094012278,3,-8.109,11.19795,-0.89295006,1781203483854
2094012288,3,-7.9080005,11.395051,-0.75195,1781203483864
2094012298,3,-7.3999505,11.04705,-0.93900007,1781203483875
2094012309,3,-6.9,10.224001,-0.95295006,1781203483885
2094012319,3,-6.5170503,9.649051,-0.666,1781203483895
2094012329,3,-5.94705,9.46695,-0.83295006,1781203483906
2094012339,3,-5.3359504,9.132,-1.03695,1781203483916
2094012349,3,-5.04195,8.7630005,-0.61800003,1781203483925
2094012359,3,-4.893,8.215051,-0.26805001,1781203483936
2094012369,3,-4.8619504,7.7719502,0.12105001,1781203483945
2094012379,3,-4.932,7.7959504,0.24105,1781203483955
2094012389,3,-4.8960004,8.0119505,0.26505002,1781203483966
2094012399,3,-5.0680504,8.433001,-0.22800002,1781203483975
2094012409,3,-5.3310003,8.64105,-0.48600003,1781203483985
2094012419,3,-5.2519503,9.333,0.83895004,1781203483995
2094012429,3,-5.19495,9.616051,0.74595004,1781203484005
2094012439,3,-4.99905,9.501,-0.89100003,1781203484016
2094012450,3,-4.32795,9.61305,-0.42405003,1781203484026
2094012460,3,-4.41405,9.03195,-0.060000002,1781203484036
2094012470,3,-4.93905,8.874001,0.075,1781203484046
2094012480,3,-5.20905,9.03405,0.73905003,1781203484056
2094012490,3,-5.2720504,8.895,2.367,1781203484066
2094012500,3,-5.5279503,8.89305,1.8019501,1781203484076
2094012510,3,-5.6860504,8.72505,0.933,1781203484086
2094012520,3,-5.5279503,8.20605,0.48000002,1781203484096
2094012530,3,-5.3050504,7.7310004,0.588,1781203484107
2094012540,3,-5.60895,6.8599505,0.67905,1781203484117
2094012550,3,-5.85795,6.7120504,0.504,1781203484126
2094012560,3,-6.1770005,6.7950006,-0.24900001,1781203484140
2094012570,3,-5.78595,7.65495,-0.108,1781203484149
2094012581,3,-5.1709504,8.61705,0.48705003,1781203484157
2094012591,3,-5.025,9.364051,-0.34305,1781203484166
2094012601,3,-4.66095,9.54405,-0.87900007,1781203484177
2094012611,3,-4.5480003,9.690001,-1.05795,1781203484187
2094012621,3,-4.1269503,9.57495,-0.44805002,1781203484197
2094012631,3,-3.6220503,9.526951,-0.354,1781203484207
2094012641,3,-3.28905,9.12495,-0.90000004,1781203484220
2094012651,3,-2.94405,9.028951,-0.96300006,1781203484227
2094012661,3,-2.64,9.151051,-0.30705002,1781203484237
2094012671,3,-2.466,9.783,-0.12900001,1781203484248
2094012681,3,-2.427,10.293,-0.85200006,1781203484257
2094012691,3,-2.4750001,10.17105,-1.6380001,1781203484268
2094012701,3,-2.7240002,10.01805,-0.321,1781203484278
2094012711,3,-2.59995,9.582001,0.78705,1781203484287
2094012722,3,-2.38695,9.40305,1.8780001,1781203484297
2094012732,3,-2.29605,9.934051,1.89495,1781203484308
2094012742,3,-2.5090501,10.5400505,1.7010001,1781203484318
2094012752,3,-2.5560002,10.87005,0.23295002,1781203484328
2094012762,3,-1.59195,11.536051,5.472,1781203484338
2094012772,3,-2.841,11.44995,-5.7060003,1781203484348
2094012782,3,-1.0170001,9.786,-1.4290501,1781203484358
2094012792,3,-1.5409501,10.73595,-2.63595,1781203484368
2094012802,3,-1.25205,9.988951,-2.73405,1781203484378
2094012812,3,-0.82500005,9.41895,-1.59195,1781203484388
2094012822,3,-0.77505004,8.743951,-1.9470001,1781203484399
2094012832,3,-1.161,8.541,-0.49305,1781203484409
2094012842,3,-1.6180501,9.313951,-0.22995001,1781203484419
2094012852,3,-0.804,9.51,0.19800001,1781203484429
2094012863,3,-1.0309501,9.972,1.02795,1781203484439
2094012873,3,-0.95205003,10.152,0.92505,1781203484449
2094012883,3,-1.06005,9.949051,1.31805,1781203484460
2094012893,3,-0.9480001,9.88605,2.1700501,1781203484469
2094012903,3,-0.94995004,10.53705,1.7490001,1781203484479
2094012913,3,-0.88305,11.023951,1.6510501,1781203484489
2094012923,3,-1.065,11.17905,1.7869501,1781203484500
2094012933,3,-1.4860501,11.61495,0.45405003,1781203484508
2094012943,3,-1.5169501,12.39795,0.29295,1781203484520
2094012953,3,-1.7880001,13.276051,1.4310001,1781203484531
2094012963,3,-2.049,12.522,1.4500501,1781203484542
2094012973,3,-2.0970001,12.26805,2.0410502,1781203484550
2094012983,3,-1.60395,11.78205,1.2199501,1781203484560
2094012994,3,-1.6560001,10.465951,-0.13395001,1781203484570
2094013004,3,-1.5630001,8.577001,0.55200005,1781203484581
2094013014,3,-2.1090002,8.148001,0.77895004,1781203484590
2094013024,3,-2.26395,8.42805,2.64,1781203484600
2094013034,3,-1.11,10.615951,2.5770001,1781203484611
2094013044,3,1.3909501,11.839951,0.13995,1781203484621
2094013054,3,2.7889502,11.373,-0.75195,1781203484630
2094013064,3,1.5340501,9.92205,-2.09505,1781203484640
2094013074,3,0.63900006,8.44995,-2.0350502,1781203484651
2094013084,3,0.26505002,7.3650002,-2.3700001,1781203484660
2094013094,3,0.16005,6.5130005,-1.6500001,1781203484671
2094013104,3,-0.09,5.79195,0.08295,1781203484682
2094013114,3,0.061950002,5.71605,0.94500005,1781203484691
2094013124,3,-0.13095,6.7039504,0.58500004,1781203484701
2094013135,3,0.201,7.5160503,0.52095,1781203484711
2094013145,3,0.294,8.29905,0.74805003,1781203484722
2094013155,3,-0.15,9.26595,0.87000006,1781203484732
2094013165,3,-0.31800002,9.460051,0.24300002,1781203484743
2094013175,3,-0.20505,9.25395,0.72195005,1781203484752
2094013185,3,-0.32295,8.979,0.98505,1781203484763
2094013195,3,-0.49695003,8.95695,0.57105005,1781203484771
2094013205,3,-1.2540001,10.245001,0.43905002,1781203484780
2094013215,3,-1.3570501,11.113951,-0.16800001,1781203484791
2094013225,3,-0.82800007,11.88105,1.4110501,1781203484802
2094013235,3,-1.7380501,12.472051,-1.7479501,1781203484812
2094013245,3,-0.282,12.024,-0.61095005,1781203484822
2094013255,3,0.70305,12.508051,-1.26195,1781203484832
2094013266,3,0.624,12.5130005,-1.233,1781203484842
2094013276,3,0.14595,12.465,-1.848,1781203484852
2094013286,3,0.031050002,11.955001,-1.863,1781203484862
2094013296,3,-0.23700002,11.29605,-1.6690501,1781203484872
2094013306,3,-1.041,10.5709505,-1.26705,1781203484882
2094013316,3,-2.0700002,9.987,-1.245,1781203484892
2094013326,3,-2.9520001,9.51,-0.83595,1781203484904
2094013336,3,-3.1720502,9.88395,0.82005006,1781203484914
2094013346,3,-3.4039502,10.07505,2.2110002,1781203484923
2094013356,3,-3.354,10.53495,2.49105,1781203484933
2094013366,3,-3.387,11.658001,2.1079502,1781203484943
2094013376,3,-3.1189501,12.477,0.48195,1781203484953
2094013386,3,-2.6569502,13.09395,-2.7919502,1781203484964
2094013396,3,-2.05095,13.873051,-3.6109502,1781203484973
2094013407,3,-1.95105,14.119051,-2.0020502,1781203484983
2094013417,3,-1.314,12.628051,-1.41795,1781203484993
2094013427,3,-0.60495,10.85805,-0.99600005,1781203485003
2094013437,3,-0.246,10.33395,-1.67805,1781203485013
2094013447,3,-0.061950002,10.20705,-2.2390501,1781203485023
2094013457,3,-0.62205005,8.983951,-2.631,1781203485034
2094013467,3,-1.2090001,7.0420504,-3.0550501,1781203485043
2094013477,3,-2.2069502,5.4619503,-2.3440502,1781203485055
2094013487,3,-3.5410502,4.3720503,-1.0320001,1781203485064
2094013497,3,-4.84095,5.064,0.66405004,1781203485073
2094013507,3,-5.2980003,6.7450504,2.874,1781203485084
2094013517,3,-5.0940003,7.46295,4.87095,1781203485094
2094013527,3,-5.688,7.7890506,3.8220003,1781203485105
2094013538,3,-6.15705,8.227051,1.50495,1781203485114
2094013548,3,-6.3630004,8.94795,0.19800001,1781203485124
2094013558,3,-6.1770005,9.490951,0.17595,1781203485134
2094013568,3,-6.0880504,10.21905,0.62895006,1781203485144
2094013578,3,-5.9440503,10.738951,0.162,1781203485154
2094013588,3,-5.35995,10.8820505,0.44700003,1781203485164
2094013598,3,-3.3420002,9.927,-0.43095002,1781203485174
2094013608,3,-0.47805002,9.970051,17.57205,1781203485184
2094013618,3,-4.5700502,13.354951,-14.398951,1781203485194
2094013628,3,2.25495,7.12095,3.62805,1781203485204
2094013638,3,2.6449502,9.56295,-8.4210005,1781203485216
2094013648,3,3.141,10.482,-8.36505,1781203485225
2094013658,3,3.9880502,10.64805,-5.538,1781203485235
2094013668,3,4.1940002,11.457001,-4.8769503,1781203485247
2094013679,3,3.8449502,11.028001,-3.3690002,1781203485256
2094013689,3,3.2770503,11.7630005,-2.49495,1781203485265
2094013699,3,1.419,12.45495,-1.7220001,1781203485274
2094013709,3,0.70605004,11.93805,-1.7050501,1781203485285
2094013719,3,0.32505003,11.34405,-2.28705,1781203485295
2094013729,3,-0.19305001,10.70505,-2.8590002,1781203485305
2094013739,3,-0.711,9.970051,-3.4650002,1781203485316
2094013749,3,-0.43500003,9.345,-3.1030502,1781203485326
2094013759,3,-0.68700004,9.493951,-3.081,1781203485335
2094013769,3,-0.8880001,9.42405,-3.7110002,1781203485345
2094013779,3,-0.94305,9.357,-3.76095,1781203485356
2094013789,3,-0.90000004,9.10095,-3.03795,1781203485366
2094013799,3,-0.76605004,8.62695,-2.9209502,1781203485376
2094013810,3,-0.76605004,7.5760503,-3.18,1781203485386
2094013820,3,-0.708,7.3939505,-2.50005,1781203485396
2094013830,3,-0.055050004,7.5829506,-1.10595,1781203485406
2094013840,3,-0.14595,7.794,-0.04095,1781203485416
2094013850,3,-1.00695,8.48295,1.6510501,1781203485426
2094013860,3,-0.70095,9.17805,3.2290502,1781203485436
2094013870,3,-0.22500001,10.297951,3.8149502,1781203485446
2094013880,3,0.46905002,11.368051,4.0090504,1781203485456
2094013890,3,1.36905,12.166051,2.355,1781203485467
2094013900,3,1.8769501,11.809051,1.0360501,1781203485476
2094013910,3,1.7310001,10.842001,0.45405003,1781203485486
2094013920,3,1.8220501,10.401,-0.201,1781203485496
2094013930,3,1.8190501,9.91005,-1.401,1781203485508
2094013940,3,1.7070001,10.458,-1.401,1781203485516
2094013951,3,1.9050001,10.684051,-1.6879501,1781203485528
2094013961,3,1.6470001,10.86495,-2.0710502,1781203485537
2094013971,3,1.2780001,10.887,-1.659,1781203485547
2094013981,3,0.67200005,10.794001,-1.31895,1781203485557
2094013991,3,-0.42795002,9.59895,-0.60105,1781203485567
2094014001,3,-1.36905,9.003,-0.61305004,1781203485577
2094014011,3,-1.9990501,8.445001,-0.32595003,1781203485587
2094014021,3,-2.5519502,7.9450502,0.21000001,1781203485597
2094014031,3,-2.5180502,7.4419503,0.33900002,1781203485608
2094014041,3,-2.7910502,8.538,0.29595003,1781203485617
2094014051,3,-3.04005,9.541051,-0.84300005,1781203485628
2094014061,3,-3.3919501,10.17405,-2.088,1781203485638
2094014071,3,-3.801,10.18605,-2.1049502,1781203485648
2094014082,3,-4.3570504,10.092,-2.18595,1781203485664
2094014092,3,-4.54605,9.979951,-2.11395,1781203485669
2094014102,3,-4.5870004,10.1980505,-2.05905,1781203485684
2094014112,3,-4.8,10.54905,-1.7050501,1781203485688
2094014122,3,-5.544,10.794001,-1.75995,1781203485697
2094014132,3,-5.2930503,10.88895,-2.1070502,1781203485708
2094014142,3,-4.24695,11.00895,-2.25495,1781203485719
2094014152,3,-3.6720002,10.983001,-2.1670501,1781203485729
2094014162,3,-3.4999502,10.854,-2.016,1781203485739
2094014172,3,-3.01395,10.18605,-2.088,1781203485748
2094014182,3,-2.403,9.925051,-1.7190001,1781203485758
2094014192,3,-2.8819501,9.460051,0.351,1781203485768
2094014202,3,-2.18505,8.65305,0.53505003,1781203485778
2094014212,3,-1.491,8.971951,2.3160002,1781203485789
2094014223,3,-1.7710501,7.5420003,1.4950501,1781203485799
2094014233,3,-1.4310001,6.7309504,2.01495,1781203485809
2094014243,3,-1.5820501,8.00205,-5.4760504,1781203485819
2094014253,3,-0.29205,5.92605,-3.10995,1781203485829
2094014263,3,0.74700004,6.19005,-5.32695,1781203485839
2094014273,3,0.52605003,6.91695,-4.5160503,1781203485849
2094014283,3,0.09,7.4710503,-3.7210503,1781203485860
2094014293,3,0.186,8.60295,-3.10995,1781203485869
2094014303,3,0.21300001,9.501,-2.43705,1781203485880
2094014313,3,0.85200006,9.501,-1.94895,1781203485889
2094014323,3,1.4980501,9.73095,-2.6190002,1781203485900
2094014333,3,0.77505004,9.903001,-4.269,1781203485910
2094014343,3,0.162,9.609,-4.056,1781203485921
2094014354,3,-0.07395,9.160951,-3.9240003,1781203485933
2094014364,3,-0.028050002,8.88105,-4.326,1781203485940
2094014374,3,0.08595,8.77995,-5.06895,1781203485950
2094014384,3,0.06705,9.03195,-5.25495,1781203485960
2094014394,3,0.50205004,8.47095,-4.5160503,1781203485971
2094014404,3,0.651,8.29395,-3.46005,1781203485980
2094014414,3,0.079050004,8.42595,-3.249,1781203485991
2094014424,3,-0.84195006,8.689051,-3.5340002,1781203486001
2094014434,3,-0.32295,7.7479506,-3.1890001,1781203486010
2094014444,3,-0.51195,7.7359505,-3.31605,1781203486021
2094014454,3,-0.61200005,7.2019506,-3.0499501,1781203486030
2094014464,3,-0.43305,6.735,-2.8950002,1781203486041
2094014474,3,-0.54300004,6.498,-2.46105,1781203486051
2094014484,3,-0.34905002,6.6880503,-2.193,1781203486061
2094014495,3,-0.07395,6.88395,-1.7530501,1781203486071
2094014505,3,-0.009000001,7.9230003,-1.3939501,1781203486081
2094014515,3,-0.48105,9.34305,-1.14705,1781203486091
2094014525,3,-0.62205005,10.42695,-1.41495,1781203486102
2094014535,3,-0.56895,10.863001,-2.12595,1781203486111
2094014545,3,-0.483,11.46405,-2.11395,1781203486121
2094014555,3,-1.065,13.626,-1.8250501,1781203486131
2094014565,3,-1.8570001,14.074051,-2.5500002,1781203486141
2094014575,3,-3.009,14.335051,-2.976,1781203486152
2094014585,3,-3.56205,14.457001,-3.52395,1781203486161
2094014595,3,-3.21705,14.490001,-2.5830002,1781203486172
2094014605,3,-3.07395,15.253951,-2.6790001,1781203486182
2094014615,3,-3.4999502,15.739951,-2.80905,1781203486192
2094014626,3,-3.5860503,15.223051,-3.108,1781203486203
2094014636,3,-2.805,13.777051,-2.8969502,1781203486212
2094014646,3,-1.83105,12.4480505,-2.2150502,1781203486223
2094014656,3,-0.34695002,11.1,-1.37205,1781203486231
2094014666,3,0.57405,10.02795,-0.85200006,1781203486243
2094014676,3,0.56205004,9.570001,-1.4580001,1781203486253
2094014686,3,0.70305,9.670951,-1.59195,1781203486265
2094014696,3,0.90705,9.048,-1.7410501,1781203486272
2094014706,3,0.75405,9.505951,-1.36995,1781203486284
2094014716,3,0.81405,9.07905,-0.84795004,1781203486292
2094014726,3,0.94500005,8.862,-0.41895002,1781203486303
2094014736,3,1.0699501,9.21105,-0.13905,1781203486312
2094014746,3,0.64605004,9.160951,-0.702,1781203486323
2094014756,3,0.22200002,9.73095,-1.5370501,1781203486333
2094014767,3,-0.06705,9.738001,-1.98705,1781203486343
2094014777,3,-0.061950002,9.949051,-2.22195,1781203486353
2094014787,3,0.055050004,9.8550005,-1.76505,1781203486363
2094014797,3,0.57705003,9.68295,-0.47895002,1781203486373
2094014807,3,0.93105006,9.457951,-0.094050005,1781203486384
2094014817,3,1.18005,9.118051,0.10395,1781203486393
2094014827,3,1.5130501,8.646001,-0.26805001,1781203486403
2094014837,3,1.59195,8.14305,-1.044,1781203486413
2094014847,3,1.8190501,8.301001,-5.4250503,1781203486424
2094014857,3,2.6119502,8.500051,-3.21795,1781203486433
2094014867,3,2.22405,8.90505,0.45105,1781203486443
2094014877,3,2.1730502,10.080001,-4.00995,1781203486454
2094014887,3,1.43595,10.36995,-4.7380505,1781203486464
2094014897,3,0.57405,10.47795,-4.506,1781203486474
2094014908,3,0.59805006,9.834001,-4.7380505,1781203486484
2094014918,3,0.87795,9.76395,-4.7719502,1781203486495
2094014928,3,1.125,9.793051,-4.566,1781203486504
2094014938,3,1.194,9.90795,-4.45305,1781203486514
2094014948,3,1.3740001,9.774,-4.164,1781203486524
2094014958,3,1.7809501,9.465,-3.8160002,1781203486535
2094014968,3,1.9650002,8.81805,-3.8860502,1781203486548
2094014978,3,1.8000001,8.28195,-4.20195,1781203486554
2094014988,3,1.6519501,8.067,-4.24695,1781203486566
2094014998,3,1.4479501,8.376,-4.05795,1781203486574
2094015008,3,1.422,8.95995,-3.8260503,1781203486585
2094015018,3,1.4670001,9.349951,-3.4980001,1781203486595
2094015028,3,1.33095,9.88605,-3.25605,1781203486605
2094015039,3,0.984,10.494,-2.871,1781203486615
2094015049,3,0.75600004,10.879951,-2.5549502,1781203486625
2094015059,3,0.58095,10.88895,-2.39205,1781203486635
2094015069,3,0.282,10.786051,-2.28195,1781203486645
2094015079,3,0.0139500005,10.33395,-2.2699502,1781203486655
2094015089,3,-0.069000006,9.958051,-2.35605,1781203486665
2094015099,3,-0.078,10.16205,-2.4180002,1781203486676
2094015109,3,-0.23205002,10.141951,-2.32005,1781203486685
2094015119,3,0.049950004,9.723001,-2.469,1781203486695
2094015129,3,0.38700002,9.453,-2.36805,1781203486705
2094015139,3,0.44700003,9.43605,-2.45895,1781203486717
2094015149,3,0.30795002,9.690001,-2.5240502,1781203486726
2094015159,3,0.22500001,9.850051,-2.6170502,1781203486736
2094015169,3,0.39705002,9.68505,-2.69805,1781203486746
2094015180,3,0.55305004,9.40005,-2.7889502,1781203486756
2094015190,3,0.54795,9.393001,-2.8830001,1781203486766
2094015200,3,0.53595,9.345,-2.97405,1781203486776
2094015210,3,0.58095,9.276,-3.072,1781203486786
2094015220,3,0.57405,9.172951,-3.117,1781203486796
2094015230,3,0.54105,9.25695,-3.22305,1781203486806
2094015240,3,0.54795,9.24495,-3.2950501,1781203486816
2094015250,3,0.49500003,9.144,-3.45495,1781203486827
2094015260,3,0.56205004,9.048,-3.6870003,1781203486836
2094015270,3,0.54300004,8.988001,-4.00995,1781203486847
2094015280,3,0.588,8.857051,-4.42695,1781203486857
2094015290,3,0.65805006,8.81595,-4.52295,1781203486867
2094015300,3,0.924,8.698951,-6.2179503,1781203486877
2094015311,3,0.72705,8.67195,-6.5790005,1781203486887
2094015321,3,-0.24405001,8.73705,-6.0739503,1781203486897
2094015331,3,-0.69900006,9.06,-5.53305,1781203486907
2094015341,3,-0.66495,9.486,-4.89405,1781203486917
2094015351,3,0.14805001,9.154051,-4.26405,1781203486928
2094015361,3,1.02195,8.562,-4.08705,1781203486937
2094015371,3,1.2349501,8.562,-4.02,1781203486947
2094015381,3,1.5150001,8.490001,-4.3120503,1781203486957
2094015391,3,1.50495,8.47095,-4.70205,1781203486967
2094015401,3,1.09605,8.529,-4.992,1781203486978
2094015411,3,0.897,8.60295,-5.1259503,1781203486989
2094015421,3,0.76995003,8.727,-5.3419504,1781203486998
2094015431,3,0.483,8.727,-5.55495,1781203487008
2094015441,3,0.14295001,8.75595,-5.703,1781203487018
2094015452,3,-0.00705,8.7300005,-5.75295,1781203487028
2094015462,3,-0.00705,8.743951,-5.5930505,1781203487038
2094015472,3,0.126,8.77095,-5.49195,1781203487048
2094015482,3,0.38700002,8.698951,-5.30805,1781203487058
2094015492,3,0.55695003,8.65995,-5.136,1781203487068
2094015502,3,0.651,8.64795,-4.98705,1781203487078
2094015512,3,0.68205005,8.63595,-4.8840003,1781203487088
2094015522,3,0.64605004,8.64795,-4.81995,1781203487098
2094015532,3,0.56895,8.656051,-4.69005,1781203487109
2094015542,3,0.51405,8.656051,-4.80495,1781203487120
2094015552,3,0.49005002,8.65095,-4.9030504,1781203487129
2094015562,3,0.351,8.64105,-4.9680004,1781203487139
2094015572,3,0.37500003,8.61495,-5.02605,1781203487148
2094015583,3,0.411,8.60805,-4.9440002,1781203487159
2094015593,3,0.38700002,8.598001,-4.88205,1781203487168
2094015603,3,0.402,8.6320505,-4.7449503,1781203487178
2094015613,3,0.45000002,8.674951,-4.6420503,1781203487190
2094015623,3,0.507,8.62005,-4.5420003,1781203487199
2094015633,3,0.57405,8.55,-4.55595,1781203487210
2094015643,3,0.62895006,8.577001,-4.6090503,1781203487219
2094015653,3,0.57900006,8.718,-4.78095,1781203487229
2094015663,3,0.47805002,8.46405,-4.98705,1781203487238
2094015673,3,0.41595003,8.3560505,-5.1600003,1781203487249
2094015683,3,0.28005,8.313001,-5.3100004,1781203487260
2094015693,3,0.31605002,8.376,-5.3320503,1781203487271
2094015703,3,0.31995,8.280001,-5.3560505,1781203487279
2094015713,3,0.26505002,8.233951,-5.3890505,1781203487290
2094015724,3,0.25605002,8.28705,-5.5279503,1781203487299
2094015734,3,0.30405003,8.349,-5.70795,1781203487310
2094015744,3,0.31995,8.40705,-5.8710003,1781203487320
2094015754,3,0.39495003,8.42595,-6.0000005,1781203487330
2094015764,3,0.55695003,8.404051,-6.1800003,1781203487341
2094015774,3,0.72495,8.328,-6.3970504,1781203487350
2094015784,3,0.651,8.103001,-6.5269504,1781203487361
2094015794,3,0.45705003,7.9350004,-6.53595,1781203487370
2094015804,3,0.37500003,7.7890506,-6.426,1781203487381
2094015814,3,0.34695002,7.8439503,-6.2920504,1781203487390
2094015824,3,0.27705002,7.9470005,-6.0600004,1781203487401
2094015834,3,0.28905,8.11005,-5.8710003,1781203487411
2094015844,3,0.41805002,8.245951,-5.787,1781203487420
2094015855,3,0.69600004,8.42805,-5.8639503,1781203487431
2094015865,3,0.78705,8.48805,-6.0000005,1781203487441
2094015875,3,0.43800002,8.347051,-6.117,1781203487451
2094015885,3,0.16005,8.22,-6.1650004,1781203487461
2094015895,3,0.079050004,7.866,-6.1200004,1781203487471
2094015905,3,0.076050006,7.6429505,-6.1800003,1781203487481
2094015915,3,0.15300001,7.6519504,-6.3019505,1781203487491
2094015925,3,0.29595003,7.87305,-6.46005,1781203487502
2094015935,3,0.49800003,8.17695,-6.50505,1781203487512
2094015945,3,0.651,8.3230505,-6.3949504,1781203487523
2094015955,3,0.49305,8.337001,-6.2040005,1781203487532
2094015965,3,0.16695,8.30595,-6.0810003,1781203487542
2094015975,3,0.08295,8.24895,-5.88705,1781203487554
2094015985,3,0.33900002,8.212951,-5.98995,1781203487562
2094015996,3,0.23700002,8.589001,-6.084,1781203487572
2094016006,3,-0.00405,8.78295,-6.3450003,1781203487582
2094016016,3,-0.052050002,8.707951,-6.5839505,1781203487593
2094016026,3,0.21000001,8.457001,-6.50505,1781203487602
2094016036,3,0.43305,8.19795,-6.6780005,1781203487612
2094016046,3,0.69405,8.422951,-6.6900005,1781203487622
2094016056,3,1.14405,8.67,-6.4999504,1781203487632
2094016066,3,1.60395,8.854051,-6.0600004,1781203487642
2094016076,3,1.4430001,9.166051,-5.5140004,1781203487652
2094016086,3,1.1340001,9.793051,-5.14995,1781203487662
2094016096,3,0.58095,10.405951,-5.3490005,1781203487672
2094016106,3,-0.22500001,11.043,-5.94705,1781203487683
2094016116,3,-0.735,11.352,-6.2779503,1781203487694
2094016127,3,-0.52605003,11.221951,-6.1249504,1781203487704
2094016137,3,0.028050002,11.33205,-5.5669503,1781203487713
2094016147,3,1.0189501,11.434951,-5.3200502,1781203487724
2094016157,3,0.81405,11.48295,-5.418,1781203487733
2094016167,3,0.16995001,11.698951,-6.03105,1781203487744
2094016177,3,0.41805002,11.694,-6.3760505,1781203487755
2094016187,3,0.13095,11.46195,-6.0720005,1781203487764
2094016197,3,-0.19800001,11.191051,-6.2850003,1781203487775
2094016207,3,-0.016050002,10.806001,-6.0409503,1781203487784
2094016217,3,0.17205001,10.458,-5.5210505,1781203487794
2094016227,3,0.112050004,10.2619505,-5.8279505,1781203487804
2094016237,3,0.00705,9.891001,-5.334,1781203487813
2094016247,3,0.25605002,9.75,-4.5420003,1781203487824
2094016257,3,0.90000004,9.61305,-4.12995,1781203487834
2094016268,3,1.12995,9.23295,-3.6109502,1781203487844
2094016278,3,0.25095,9.5460005,-3.5719502,1781203487854
2094016288,3,-0.40695003,9.625051,-3.7450502,1781203487864
2094016298,3,-0.45000002,9.319051,-3.3690002,1781203487874
2094016308,3,0.112050004,8.646001,-3.084,1781203487884
2094016318,3,0.873,7.6810503,-3.153,1781203487894
2094016328,3,0.56895,6.846,-3.7420502,1781203487905
2094016338,3,0.57405,5.81895,-3.25095,1781203487914
2094016348,3,-0.957,8.60805,-4.374,1781203487924
2094016358,3,-0.04695,8.50695,-4.5469503,1781203487934
2094016368,3,0.19095,8.988001,-4.7449503,1781203487944
2094016378,3,0.30600002,9.36705,-3.97005,1781203487955
2094016388,3,0.45900002,9.184951,-3.79695,1781203487965
2094016399,3,0.28695002,8.34405,-3.8760002,1781203487975
2094016409,3,0.86595005,7.15395,-4.6210504,1781203487985
2094016419,3,1.26405,7.0420504,-4.8769503,1781203487995
2094016429,3,1.89795,8.674951,-5.3419504,1781203488005
2094016439,3,1.4290501,8.953051,-0.24195,1781203488015
2094016449,3,0.77295005,7.9920006,-0.50505,1781203488025
2094016459,3,1.31595,5.742,-2.4880502,1781203488036
2094016469,3,1.2210001,3.96495,-3.89595,1781203488045
2094016479,3,0.43500003,3.9850502,-4.50105,1781203488055
2094016489,3,-0.27,5.0670004,-3.9769502,1781203488065
2094016499,3,-2.16105,6.59205,-2.5450501,1781203488075
2094016509,3,-2.5470002,6.7260003,-2.196,1781203488086
2094016519,3,-1.74705,5.907,-1.9300501,1781203488096
2094016529,3,-1.52505,6.0529504,-2.66205,1781203488106
2094016540,3,-1.21305,6.609,-2.904,1781203488116
2094016550,3,-1.21095,8.45505,-2.35095,1781203488126
2094016560,3,-1.2210001,10.03005,-2.08095,1781203488137
2094016570,3,-1.5270001,11.12205,-2.3029501,1781203488146
2094016580,3,-2.01795,11.200951,-2.66505,1781203488156
2094016590,3,-2.3719501,9.622951,-2.25795,1781203488166
2094016600,3,-1.2540001,8.48805,-2.868,1781203488176
2094016610,3,-0.29895002,9.55305,-3.6820502,1781203488186
2094016620,3,-0.71295005,10.96605,-4.02705,1781203488196
2094016630,3,-1.1149501,10.569,-6.4810505,1781203488206
2094016640,3,-1.7020501,10.17105,-7.7209506,1781203488216
2094016650,3,-1.7590501,9.13395,-6.72795,1781203488227
2094016660,3,-1.0890001,7.8559504,-7.1059504,1781203488237
2094016670,3,0.016050002,6.8959503,-4.8840003,1781203488248
2094016681,3,-0.30405003,7.1140504,-4.62795,1781203488257
2094016691,3,-0.44700003,6.35505,-3.7230003,1781203488267
2094016701,3,-0.30795002,6.5820003,-3.8569503,1781203488276
2094016711,3,-0.74205005,8.50695,-4.46805,1781203488286
2094016721,3,-0.78195006,8.908951,-5.26305,1781203488297
2094016731,3,-0.20505,8.586,-6.4500003,1781203488307
2094016741,3,0.67005,6.9289503,-7.4820004,1781203488317
2094016751,3,1.55295,4.9230003,-8.418,1781203488327
2094016761,3,1.5150001,4.44705,-8.01795,1781203488338
2094016771,3,1.419,5.55495,-6.3180003,1781203488347
2094016781,3,0.45195,8.6320505,-4.73595,1781203488358
2094016791,3,-0.52905005,11.40705,-3.8089502,1781203488368
2094016801,3,-1.5630001,12.86505,-4.3240504,1781203488378
2094016812,3,-1.6609501,12.496051,-3.9510002,1781203488388
2094016822,3,-1.6159501,12.343051,-2.95005,1781203488398
2094016832,3,-2.9299502,12.12195,-3.0600002,1781203488408
2094016842,3,-3.2320502,11.268001,-3.0859501,1781203488418
2094016852,3,-1.6510501,10.722,-1.1400001,1781203488428
2094016862,3,-0.79200006,10.899,-0.28995,1781203488438
2094016872,3,-0.75600004,11.578951,-0.47205,1781203488448
2094016882,3,-0.90195006,11.854051,-1.8870001,1781203488459
2094016892,3,-0.708,11.14095,-2.5159502,1781203488468
2094016902,3,-0.48795003,10.47795,-1.33395,1781203488478
2094016912,3,-0.23400001,10.48005,-0.89295006,1781203488489
2094016922,3,0.37800002,9.970051,-1.45095,1781203488498
2094016932,3,1.51995,8.76105,-2.1720002,1781203488508
2094016942,3,2.2759502,9.09405,-2.8879502,1781203488518
2094016953,3,1.9440001,9.970051,-3.213,1781203488528
2094016963,3,2.19495,10.441951,-1.41795,1781203488538
2094016973,3,1.7539501,10.795951,-5.1450005,1781203488548
2094016983,3,2.05905,10.453951,-6.9889503,1781203488558
2094016993,3,2.118,10.581,-5.10195,1781203488568
2094017003,3,2.1660001,11.524051,-3.4620001,1781203488578
2094017013,3,1.58895,13.129951,-2.706,1781203488589
2094017023,3,1.0699501,14.578951,-2.59995,1781203488598
2094017033,3,0.97605,15.670951,-3.1249502,1781203488609
2094017043,3,0.32805002,16.15695,-3.15105,1781203488619
2094017053,3,0.141,15.28995,-3.31605,1781203488630
2094017063,3,0.081,13.01805,-3.9550502,1781203488640
2094017073,3,-0.021000002,11.560051,-4.05405,1781203488650
2094017084,3,-0.28005,11.689051,-3.7759502,1781203488660
2094017094,3,-0.9480001,11.857051,-3.8119502,1781203488670
2094017104,3,-1.1370001,12.541051,-3.6439502,1781203488680
2094017114,3,-1.5840001,12.972001,-3.3379502,1781203488690
2094017124,3,-2.2720501,12.867001,-3.3349502,1781203488700
2094017134,3,-1.47405,11.524051,-2.4810002,1781203488710
2094017144,3,-1.2610501,8.754001,-1.5970501,1781203488722
2094017154,3,-0.735,6.32595,-2.6509502,1781203488731
2094017164,3,-0.54105,5.1150002,-3.9889503,1781203488741
2094017174,3,-0.68895006,5.859,-5.6910005,1781203488751
2094017184,3,-0.77805007,7.2000003,-6.7060504,1781203488762
2094017194,3,-0.55005,7.6740003,-5.5930505,1781203488771
2094017204,3,-0.35895002,7.4820004,-3.21795,1781203488781
2094017214,3,-0.55305004,6.97305,-0.35700002,1781203488791
2094017225,3,-0.54495,6.498,1.143,1781203488801
2094017235,3,-0.39900002,6.1369505,1.3780501,1781203488811
2094017245,3,-0.058950003,5.46705,0.822,1781203488821
2094017255,3,0.48105,5.23395,0.34095,1781203488832
2094017265,3,0.837,5.5480504,-0.55305004,1781203488841
2094017275,3,0.56700003,6.2569504,-1.9369501,1781203488852
2094017285,3,0.28905,6.2850003,-3.00705,1781203488862
2094017295,3,-0.40695003,6.1200004,-3.522,1781203488872
2094017305,3,-0.24795002,5.80905,-3.5100002,1781203488882
2094017315,3,-0.22905001,5.8639503,-2.62695,1781203488892
2094017325,3,-0.72705,6.16095,-2.19105,1781203488904
2094017335,3,-1.5130501,6.30495,-2.65995,1781203488911
2094017345,3,-1.6470001,6.477,-3.5790002,1781203488921
2094017356,3,-1.5990001,7.2330003,-4.87995,1781203488932
2094017366,3,-2.0700002,7.8250504,-4.52295,1781203488942
2094017376,3,-2.3790002,8.232,-2.7610502,1781203488952
2094017386,3,-2.0970001,8.536051,-1.5370501,1781203488963
2094017396,3,-2.214,8.232,-1.4100001,1781203488973
2094017406,3,-2.12595,7.96605,-2.2050002,1781203488982
2094017416,3,-1.8649501,7.9729505,-3.1939502,1781203488994
2094017426,3,-1.9789501,7.8180003,-3.38295,1781203489002
2094017436,3,-2.1420002,8.457001,-3.9720001,1781203489012
2094017446,3,-2.2069502,9.43095,-4.26405,1781203489023
2094017456,3,-2.3749502,9.37395,-3.96705,1781203489033
2094017466,3,-2.3170502,9.55095,-3.7540503,1781203489042
2094017476,3,-1.7689501,9.5460005,-4.20405,1781203489053
2094017486,3,-1.4650501,9.81,-4.0609503,1781203489065
2094017497,3,-1.3740001,10.000951,-2.631,1781203489073
2094017507,3,-1.4650501,10.23795,-2.15505,1781203489083
2094017517,3,-1.31895,10.719001,-2.16195,1781203489093
2094017527,3,-0.69900006,10.34595,-1.2,1781203489105
2094017537,3,-0.42795002,10.233001,-2.0710502,1781203489113
2094017547,3,-0.27195,10.473001,-3.072,1781203489123
2094017557,3,0.68895006,10.615951,-3.4090502,1781203489133
2094017567,3,1.09095,11.434951,-3.25095,1781203489143
2094017577,3,1.1010001,12.079051,-1.7479501,1781203489154
2094017587,3,1.05795,12.558001,-0.192,1781203489164
2094017597,3,0.897,12.4459505,0.50895,1781203489173
2094017607,3,0.984,12.007951,-0.08205,1781203489183
2094017617,3,0.88500005,11.802001,-0.61305004,1781203489193
2094017628,3,0.91905004,11.634001,-0.94095004,1781203489204
2094017638,3,0.66705,11.77995,-0.74700004,1781203489214
2094017648,3,0.46605003,11.79195,-0.83805007,1781203489224
2094017658,3,0.71805006,11.682,-0.75195,1781203489234
2094017668,3,0.79695004,10.935,-1.19505,1781203489245
2094017678,3,0.47595003,11.16495,-0.96495,1781203489254
2094017688,3,-0.064050004,11.7300005,-1.008,1781203489264
2094017698,3,0.13800001,12.024,-0.64395005,1781203489274
2094017708,3,0.48105,11.410951,-0.62700003,1781203489284
2094017718,3,0.18900001,10.67205,-0.43800002,1781203489295
2094017728,3,0.49005002,9.628051,-0.177,1781203489304
2094017738,3,0.79695004,8.823,0.17400001,1781203489314
2094017748,3,0.08295,9.237,0.186,1781203489324
2094017758,3,-0.57405,10.33395,0.708,1781203489336
2094017769,3,-0.58095,10.71,0.231,1781203489345
2094017779,3,-1.14405,10.582951,-0.666,1781203489355
2094017789,3,-1.4500501,9.817051,-1.4650501,1781203489366
2094017799,3,-1.5010501,8.481,-1.45095,1781203489375
2094017809,3,-1.98705,7.1740503,-0.51000005,1781203489385
2094017819,3,-1.9410001,6.88605,0.034950003,1781203489396
2094017829,3,-3.0540001,6.97305,2.154,1781203489405
2094017839,3,-3.1290002,7.9879503,2.18205,1781203489416
2094017849,3,-3.6000001,8.41605,1.6030501,1781203489427
2094017859,3,-3.6079502,8.842051,-0.28995,1781203489436
2094017869,3,-3.4060502,8.67195,-1.10895,1781203489446
2094017879,3,-3.1930501,8.706,-0.642,1781203489456
2094017889,3,-2.8990502,8.85,0.049050003,1781203489466
2094017900,3,-3.62895,8.983951,1.182,1781203489476
2094017910,3,-4.1610003,8.6959505,1.5960001,1781203489486
2094017920,3,-3.9640503,8.481,1.9570501,1781203489496
2094017930,3,-3.2629502,8.718,2.15595,1781203489506
2094017940,3,-4.7299504,16.36005,4.6600504,1781203489516
2094017950,3,-3.1290002,7.2049503,2.2690501,1781203489525
2094017960,3,-4.407,10.498951,1.0570501,1781203489537
2094017970,3,-4.596,9.022051,-1.02705,1781203489546
2094017980,3,-4.584,7.8220506,-1.06095,1781203489557
2094017990,3,-4.29495,8.581051,0.55695003,1781203489568
2094018000,3,-3.8610003,8.62695,2.62995,1781203489577
2094018010,3,-3.32505,8.64105,3.423,1781203489587
2094018020,3,-3.3940501,8.94495,3.798,1781203489597
2094018030,3,-3.05205,9.288,2.2759502,1781203489607
2094018041,3,-2.5110002,9.68805,0.51405,1781203489617
2094018051,3,-2.01495,10.02795,0.01305,1781203489628
2094018061,3,-2.049,10.34595,0.19305001,1781203489638
2094018071,3,-2.0680501,10.54695,0.45900002,1781203489648
2094018081,3,-1.8499501,10.353001,0.58995,1781203489658
2094018091,3,-1.6110001,9.61305,1.50495,1781203489669
2094018101,3,-1.67505,9.39795,2.30205,1781203489677
2094018111,3,-1.55295,10.375051,0.92805004,1781203489688
2094018121,3,-1.4959501,11.055,1.6009501,1781203489698
2094018131,3,-1.26795,10.329,0.59295005,1781203489708
2094018141,3,-1.0530001,10.903951,0.21000001,1781203489717
2094018151,3,-0.98805004,11.253,1.08105,1781203489727
2094018161,3,-0.897,10.9800005,1.8499501,1781203489738
2094018172,3,-0.66495,11.313001,2.15805,1781203489748
2094018182,3,0.112050004,11.62005,2.11305,1781203489758
2094018192,3,0.13395001,11.589001,1.12395,1781203489769
2094018202,3,-0.28905,11.57205,1.0330501,1781203489779
2094018212,3,-0.42795002,11.30805,0.58305,1781203489788
2094018222,3,-0.049950004,10.552051,-1.28805,1781203489798
2094018232,3,-1.4580001,10.111051,2.3809502,1781203489808
2094018242,3,-1.5490501,9.225,3.5689502,1781203489818
2094018252,3,-1.35195,9.949051,3.4350002,1781203489828
2094018262,3,-0.57900006,8.878051,3.4110003,1781203489839
2094018272,3,-1.23705,10.19295,6.1810503,1781203489848
2094018282,3,-1.3879501,10.47,6.0349503,1781203489859
2094018292,3,-0.99105006,9.621,3.693,1781203489869
2094018302,3,-0.84195006,9.052951,2.9599502,1781203489879
2094018313,3,-0.08295,9.213,1.9740001,1781203489889
2094018323,3,0.55695003,9.052951,1.251,1781203489899
2094018333,3,-0.23700002,8.538,1.9600501,1781203489909
2094018343,3,-1.9480501,8.31795,3.1279502,1781203489919
2094018353,3,-2.73795,8.644051,4.32495,1781203489929
2094018363,3,-2.87295,8.79195,4.2169504,1781203489941
2094018373,3,-2.298,9.805051,5.3310003,1781203489949
2094018383,3,-1.812,9.57495,3.4110003,1781203489960
2094018393,3,-1.539,7.42005,0.86805004,1781203489969
2094018403,3,-1.1530501,8.42805,1.2919501,1781203489979
2094018413,3,0.093,8.70405,1.7950501,1781203489990
2094018423,3,0.186,10.08705,2.6130002,1781203490000
2094018433,3,-0.588,11.02095,2.4150002,1781203490010
2094018444,3,-1.3039501,10.69305,2.15805,1781203490020
2094018454,3,-2.43705,10.51095,2.52705,1781203490031
2094018464,3,-3.2440503,10.291051,2.6779501,1781203490041
2094018474,3,-3.41805,10.13805,2.43405,1781203490050
2094018484,3,-3.1380002,9.8890505,0.897,1781203490061
2094018494,3,-1.9339501,10.095,0.77505004,1781203490070
2094018504,3,-1.3069501,9.661051,2.7859502,1781203490080
2094018514,3,-1.8210001,9.90495,4.11,1781203490091
2094018524,3,-2.25705,10.00395,3.9090002,1781203490100
2094018534,3,-2.14695,10.120951,3.1879501,1781203490110
2094018544,3,-1.5769501,10.39605,2.427,1781203490120
2094018554,3,-1.3930501,10.189951,2.4510002,1781203490131
2094018564,3,-1.4809501,10.600051,2.7550502,1781203490141
2094018574,3,-1.52505,10.51395,2.4,1781203490151
2094018585,3,-1.2760501,10.17405,1.9530001,1781203490161
2094018595,3,-0.76995003,11.27505,3.3630002,1781203490172
2094018605,3,-0.89505005,11.512051,3.2599502,1781203490181
2094018615,3,-1.17495,10.731001,2.83395,1781203490191
2094018625,3,-1.39995,10.64295,2.0340002,1781203490202
2094018635,3,-1.52205,10.82205,1.9020001,1781203490211
2094018645,3,-1.4070001,10.2960005,1.9570501,1781203490221
2094018655,3,-1.1560501,10.413,2.3719501,1781203490232
2094018665,3,-1.029,10.51605,1.7989501,1781203490242
2094018675,3,-1.3039501,10.50195,0.73395,1781203490252
2094018685,3,-1.25205,10.317,0.93495005,1781203490263
2094018695,3,-0.94995004,10.06095,1.74705,1781203490272
2094018705,3,-0.78705,10.408051,2.3500502,1781203490281
2094018715,3,-0.66300005,9.982051,2.29695,1781203490291
2094018726,3,-0.74895006,10.284,2.187,1781203490303
2094018736,3,-0.88995004,10.429951,1.605,1781203490312
2094018746,3,-0.63900006,9.823951,1.70595,1781203490323
2094018756,3,-0.28005,9.18,1.5600001,1781203490332
2094018766,3,-0.32700002,8.976001,1.4260501,1781203490342
2094018776,3,-0.72495,9.325951,1.0999501,1781203490353
2094018786,3,-0.93105006,9.316051,0.60705,1781203490362
2094018796,3,-0.50895,9.439051,0.93495005,1781203490372
2094018806,3,-0.53295004,9.838051,1.4070001,1781203490383
2094018816,3,-1.0000501,10.096951,1.488,1781203490392
2094018826,3,-0.555,10.200001,1.7160001,1781203490403
2094018836,3,-0.22200002,10.209001,1.4760001,1781203490412
2094018846,3,-0.18105,10.408051,1.4140501,1781203490423
2094018857,3,-0.57900006,10.758,1.57395,1781203490433
2094018867,3,-0.55695003,10.594951,1.9650002,1781203490443
2094018877,3,-0.56895,10.107,1.7200501,1781203490453
2094018887,3,-0.44700003,11.899951,1.27005,1781203490463
2094018897,3,1.26405,5.49795,-1.87995,1781203490473
2094018907,3,0.98595005,9.70695,-2.6820002,1781203490483
2094018917,3,0.65295005,9.754951,-1.6380001,1781203490493
2094018927,3,0.33195,9.474,-0.192,1781203490504
2094018937,3,0.061950002,9.199051,0.59295005,1781203490513
2094018947,3,-0.23205002,7.80105,-2.8519502,1781203490524
2094018957,3,-0.45000002,8.955001,0.67395,1781203490533
2094018967,3,0.06705,9.154051,1.4779501,1781203490545
2094018977,3,0.40905002,9.175051,1.12905,1781203490563
2094018987,3,0.65595,9.502951,0.777,1781203490564
2094018998,3,0.96000004,9.60105,0.123,1781203490573
2094019008,3,0.83295006,9.976951,-0.52695,1781203490585
2094019018,3,0.72495,10.438951,-1.056,1781203490594
2094019028,3,0.62700003,10.456051,-1.008,1781203490604
2094019038,3,0.54105,10.26,-0.44295,1781203490615
2094019048,3,0.402,10.269,0.29805002,1781203490625
2094019058,3,0.61005,10.305,0.25005,1781203490634
2094019068,3,0.65595,10.092,0.19500001,1781203490644
2094019078,3,0.57405,9.75,1.1190001,1781203490654
2094019088,3,0.68700004,9.774,1.3759501,1781203490665
2094019098,3,0.00405,10.16205,0.82500005,1781203490674
2094019108,3,-0.21000001,9.90495,-0.20805001,1781203490685
2094019118,3,0.22500001,12.26805,-0.10095,1781203490695
2094019129,3,0.51195,8.047951,-2.08995,1781203490704
2094019139,3,-0.43005002,8.79705,-1.7569501,1781203490716
2094019149,3,0.20505,8.896951,-1.3909501,1781203490725
2094019159,3,0.37995002,9.213,-0.57495004,1781203490737
2094019169,3,0.45705003,9.90795,-0.48405004,1781203490745
2094019179,3,0.56205004,10.257001,-0.28005,1781203490755
2094019189,3,0.72495,10.5709505,-0.75405,1781203490765
2094019199,3,0.44700003,10.51095,-1.4580001,1781203490775
2094019209,3,0.67695004,10.095,-2.11905,1781203490785
2094019219,3,0.82095003,9.429001,-1.6159501,1781203490795
2094019229,3,0.52395004,8.971951,1.6200001,1781203490806
2094019239,3,0.61995006,9.249001,3.2670002,1781203490816
2094019249,3,0.23895001,9.9529505,2.115,1781203490826
2094019259,3,-0.41805002,10.356001,0.64095,1781203490836
2094019270,3,-0.75795,10.32705,-0.48900002,1781203490846
2094019280,3,-0.40695003,9.486,-1.4800501,1781203490856
2094019290,3,0.6,8.23695,-2.3059502,1781203490867
2094019300,3,0.57900006,7.8870006,-2.3110502,1781203490877
2094019310,3,0.186,9.41895,-3.07695,1781203490886
2094019320,3,0.14295001,9.337951,-4.5280504,1781203490897
2094019330,3,1.09395,8.79705,-5.4210005,1781203490908
2094019340,3,1.8409501,8.245951,-5.05695,1781203490916
2094019350,3,1.3930501,7.8889503,-2.9590502,1781203490927
2094019360,3,1.1700001,7.7650504,-0.65895003,1781203490938
2094019370,3,1.39995,7.7430005,0.68595004,1781203490947
2094019380,3,1.4620501,7.65495,1.4310001,1781203490956
2094019390,3,1.14405,7.7700005,1.2730501,1781203490967
2094019401,3,0.86100006,8.13405,0.58095,1781203490977
2094019411,3,1.28295,7.7479506,0.0010500001,1781203490987
2094019421,3,1.71105,7.6399503,-0.58395004,1781203490998
2094019431,3,1.5679501,7.9570503,-1.02195,1781203491007
2094019441,3,1.3740001,8.47095,-1.4770501,1781203491017
2094019451,3,1.2280501,8.91405,-1.49205,1781203491028
2094019461,3,1.4260501,9.217951,-1.6660501,1781203491038
2094019471,3,1.3909501,9.465,-1.626,1781203491048
2094019481,3,1.24905,9.634951,-1.506,1781203491057
2094019491,3,1.0510501,9.798,-1.60395,1781203491069
2094019501,3,0.97200006,9.955951,-1.4250001,1781203491078
2094019511,3,0.71295005,10.02795,-1.13505,1781203491088
2094019521,3,0.45705003,9.831,-1.09905,1781203491098
2094019531,3,0.54105,9.37605,-0.94305,1781203491109
2094019542,3,0.76305,8.77305,-0.78795004,1781203491118
2094019552,3,0.76995003,8.47095,-0.63195,1781203491128
2094019562,3,0.74895006,8.59605,-0.59595,1781203491138
2094019572,3,0.45900002,9.027,-0.31605002,1781203491148
2094019582,3,0.08295,9.321,-0.24405001,1781203491159
2094019592,3,-0.411,9.4789505,-0.010050001,1781203491168
2094019602,3,-0.81600004,9.453,0.109050006,1781203491178
2094019612,3,-0.88995004,9.337951,0.016050002,1781203491189
2094019622,3,-0.79395,9.312,-0.26295,1781203491199
2094019632,3,-0.711,9.496051,-0.010050001,1781203491208
2094019642,3,-0.675,9.61305,0.042000003,1781203491222
2094019652,3,-0.76605004,9.7570505,-0.17295001,1781203491235
2094019662,3,-1.4140501,9.81,-0.07395,1781203491238
2094019673,3,-1.5169501,9.193951,-0.14595,1781203491249
2094019683,3,-1.4479501,8.490001,-0.177,1781203491258
2094019693,3,-1.1179501,8.03295,0.08505,1781203491268
2094019703,3,-0.55995005,8.29905,0.37995002,1781203491279
2094019713,3,-0.38295,8.65095,0.86595005,1781203491289
2094019723,3,-0.60300004,9.175051,0.73095006,1781203491298
2094019733,3,-0.9480001,9.609,0.573,1781203491309
2094019743,3,-0.98100007,9.798,0.14505,1781203491320
2094019753,3,-0.984,10.34805,0.92100006,1781203491329
2094019763,3,-1.314,11.814,2.3140502,1781203491340
2094019773,3,-1.25205,11.713051,3.8220003,1781203491349
2094019783,3,-1.2420001,11.500051,3.93495,1781203491359
2094019793,3,-0.531,11.1,4.05,1781203491369
2094019803,3,-0.09,11.056951,3.423,1781203491379
2094019814,3,-0.74205005,13.300051,3.1039503,1781203491390
2094019824,3,-0.957,16.35495,3.4060502,1781203491401
2094019834,3,-0.423,21.02205,6.1060505,1781203491412
2094019844,3,-0.045,23.79705,4.17705,1781203491421
2094019854,3,-0.89505005,24.910051,-0.71595,1781203491430
2094019864,3,-2.5489502,20.65995,-2.0380502,1781203491441
2094019874,3,0.17400001,12.537001,0.61695004,1781203491450
2094019884,3,1.5130501,11.083051,-0.02205,1781203491460
2094019894,3,2.7820501,6.63,-1.8250501,1781203491470
2094019904,3,2.47005,4.947,-3.4309502,1781203491481
2094019914,3,1.59195,3.8070002,-5.0880003,1781203491490
2094019924,3,0.49500003,2.4829502,-6.71295,1781203491501
2094019934,3,0.27195,1.42005,-6.7780504,1781203491511
2094019945,3,0.354,0.47505003,-5.052,1781203491520
2094019955,3,0.462,2.67,-3.381,1781203491532
2094019965,3,2.8920002,2.19405,-1.9300501,1781203491542
2094019975,3,3.6870003,3.70005,-5.0230503,1781203491551
2094019985,3,3.9,24.50295,-18.83505,1781203491561
2094019995,3,3.31095,8.598001,-6.951,1781203491571
2094020005,3,2.6479502,5.0809503,-3.1600502,1781203491582
2094020015,3,1.8379501,5.4310503,-0.02205,1781203491592
2094020025,3,2.11605,6.5560503,1.81605,1781203491602
2094020035,3,2.94195,7.8300004,2.9530501,1781203491611
2094020045,3,3.2080503,8.60295,2.80695,1781203491623
2094020055,3,3.1720502,9.3810005,2.532,1781203491633
2094020065,3,2.49405,9.678,0.91305006,1781203491642
2094020075,3,2.3050501,13.891951,-0.216,1781203491653
2094020086,3,2.6239502,24.771002,-4.839,1781203491662
2094020096,3,2.94705,30.927002,-13.803,1781203491671
2094020106,3,3.6079502,9.573001,-10.210951,1781203491681
2094020116,3,3.3990002,5.2180505,-10.860001,1781203491691
2094020126,3,2.6190002,5.5579505,-8.004001,1781203491701
2094020136,3,1.7899501,7.2720003,-4.6860003,1781203491711
2094020146,3,1.76205,9.361951,-4.5160503,1781203491721
2094020156,3,1.4119501,10.486951,-6.0649505,1781203491732
2094020166,3,1.04805,10.609051,-5.7319503,1781203491741
2094020176,3,1.16805,10.16895,-4.58505,1781203491753
2094020186,3,1.7400001,9.345,-3.6349502,1781203491762
2094020196,3,2.118,8.69205,-3.2440503,1781203491773
2094020206,3,2.3359501,8.500051,-2.9880002,1781203491783
2094020217,3,2.6119502,8.434951,-2.94,1781203491793
2094020227,3,2.6479502,8.49495,-2.979,1781203491803
2094020237,3,2.2999501,8.833051,-3.2280002,1781203491813
2094020247,3,1.98405,9.160951,-3.7110002,1781203491823
2094020257,3,1.728,9.217951,-3.8160002,1781203491833
2094020267,3,1.5840001,8.91405,-3.55605,1781203491843
2094020277,3,1.56105,8.766001,-3.3280501,1781203491853
2094020287,3,1.60395,8.920951,-3.2989502,1781203491863
2094020297,3,1.6660501,8.95995,-3.76395,1781203491873
2094020307,3,1.8330001,9.156,-4.43895,1781203491883
2094020317,3,1.9600501,8.380051,-4.6860003,1781203491894
2094020327,3,1.9339501,8.72505,-4.71705,1781203491904
2094020337,3,2.1420002,9.23295,-4.662,1781203491914
2094020347,3,2.16405,9.04605,-4.89405,1781203491924
2094020358,3,2.08695,8.74695,-4.5610504,1781203491936
2094020368,3,2.07495,8.72505,-4.6740003,1781203491946
2094020378,3,1.9030501,8.78505,-4.473,1781203491956
2094020388,3,1.74705,8.656051,-4.623,1781203491965
2094020398,3,2.04705,8.682,-4.2379503,1781203491973
2094020408,3,2.1379502,8.833051,-3.8359501,1781203491985
2094020418,3,1.8000001,9.036,-4.2000003,1781203491994
2094020428,3,1.5270001,8.79705,-4.6810503,1781203492010
2094020438,3,1.86705,8.64105,-4.6519504,1781203492014
2094020448,3,2.01105,8.385,-4.4940004,1781203492024
2094020458,3,2.2810502,9.321,-4.4370003,1781203492034
2094020468,3,2.2789502,8.59605,-4.671,1781203492045
2094020478,3,2.0989501,8.028001,-4.6660504,1781203492056
2094020489,3,2.298,8.73495,-4.7260504,1781203492065
2094020499,3,2.322,9.09405,-5.0209503,1781203492077
2094020509,3,2.05395,8.979,-5.0929503,1781203492085
2094020519,3,1.59405,8.397,-4.5589504,1781203492095
2094020529,3,1.197,8.887951,-4.51305,1781203492105
2094020539,3,1.1010001,9.68295,-4.7310004,1781203492115
2094020549,3,1.35195,9.457951,-4.2450004,1781203492125
2094020559,3,1.86705,9.52995,-3.42105,1781203492136
2094020569,3,2.72895,9.91695,-2.421,1781203492144
2094020579,3,2.9250002,10.458,-2.1049502,1781203492156
2094020589,3,2.1400502,11.00205,-7.7839503,1781203492165
2094020599,3,1.10595,12.08895,-5.3179502,1781203492175
2094020609,3,0.63405,12.160951,-5.9280005,1781203492186
2094020619,3,0.60495,12.010051,-5.9950504,1781203492196
2094020630,3,0.507,11.581051,-5.8900504,1781203492205
2094020640,3,0.61995006,11.031,-5.3509502,1781203492216
2094020650,3,0.94005007,10.67595,-4.5420003,1781203492226
2094020660,3,1.27995,10.152,-1.983,1781203492237
2094020670,3,1.40505,9.988951,-0.51000005,1781203492246
2094020680,3,0.80205005,10.387051,-1.11105,1781203492256
2094020690,3,-0.38505003,10.842001,-2.18805,1781203492266
2094020700,3,-0.71295005,10.806001,-2.74095,1781203492276
2094020710,3,-0.56505,10.297951,-3.11505,1781203492286
2094020720,3,-0.49995002,9.823951,-3.38595,1781203492296
2094020730,3,0.022950001,9.0390005,-3.831,1781203492306
2094020740,3,0.88500005,8.071051,-3.18195,1781203492317
2094020750,3,1.26405,8.191051,-2.67405,1781203492327
2094020760,3,1.6180501,8.60505,-2.148,1781203492337
2094020771,3,1.36905,9.85995,-1.8919501,1781203492348
2094020781,3,0.624,11.040001,-0.93105006,1781203492357
2094020791,3,0.21705002,11.65995,-1.8940501,1781203492368
2094020801,3,0.31800002,11.706,-1.269,1781203492378
2094020811,3,0.60795003,11.050051,0.50205004,1781203492387
2094020821,3,0.53805,9.937051,2.56095,1781203492398
2094020831,3,0.50205004,9.451051,0.87795,1781203492408
2094020841,3,0.61995006,9.502951,-2.3460002,1781203492419
2094020851,3,0.768,9.43095,-2.15505,1781203492429
2094020861,3,1.2250501,8.19795,-2.2099502,1781203492438
2094020871,3,1.4980501,7.2979503,-0.0049500004,1781203492450
2094020881,3,1.2210001,6.42705,1.5289501,1781203492458
2094020891,3,1.11,5.931,1.62705,1781203492470
2094020902,3,1.4500501,4.15695,-1.02495,1781203492478
2094020912,3,1.1850001,4.6140003,-2.87295,1781203492488
2094020922,3,0.19800001,4.2840004,-5.0470505,1781203492498
2094020932,3,-1.00995,6.6130505,-8.547,1781203492508
2094020942,3,-0.39705002,9.549001,-8.86305,1781203492518
2094020952,3,-0.41400003,11.292001,-6.0979505,1781203492528
2094020962,3,0.13395001,10.942051,-5.01405,1781203492539
2094020972,3,0.72705,9.357,-4.84095,1781203492549
2094020982,3,1.6900501,14.383051,-2.06205,1781203492558
2094020992,3,5.157,7.7430005,1.93095,1781203492568
2094021002,3,-0.25995,7.806,-0.46500003,1781203492579
2094021012,3,0.25305,5.184,0.016050002,1781203492589
2094021022,3,2.18295,7.056,-0.61800003,1781203492599
2094021032,3,3.0949502,9.36705,-3.5410502,1781203492609
2094021043,3,2.8510501,11.14095,-3.69405,1781203492619
2094021053,3,1.7689501,12.055051,-2.57205,1781203492629
2094021063,3,0.651,12.022051,-1.91295,1781203492639
2094021073,3,0.22500001,11.65995,-1.1329501,1781203492649
2094021083,3,0.43800002,10.39395,-2.02095,1781203492660
2094021093,3,1.05795,9.328051,-1.60695,1781203492670
2094021103,3,1.8790501,8.49495,-2.28705,1781203492680
2094021113,3,1.51005,9.4480505,-1.056,1781203492690
2094021123,3,1.4670001,10.116,-2.0689502,1781203492700
2094021133,3,1.2090001,10.545,-2.9880002,1781203492709
2094021143,3,1.0189501,10.597051,-2.28705,1781203492721
2094021153,3,0.98595005,10.267051,-1.8940501,1781203492730
2094021163,3,1.04805,9.321,-2.05695,1781203492740
2094021174,3,0.97200006,8.56005,-2.11695,1781203492750
2094021184,3,0.8880001,8.41905,-2.3130002,1781203492760
2094021194,3,0.75795,9.1060505,-3.24705,1781203492770
2094021204,3,0.99300003,9.151051,-2.9260502,1781203492781
2094021214,3,0.64605004,9.324,-2.193,1781203492790
2094021224,3,0.35895002,9.163051,-1.6309501,1781203492800
2094021234,3,0.48600003,9.192,-1.1920501,1781203492810
2094021244,3,0.74205005,9.316051,-1.8679501,1781203492820
2094021254,3,0.897,9.54405,-2.157,1781203492831
2094021264,3,0.99105006,9.999001,-1.9849501,1781203492840
2094021274,3,0.50205004,12.166051,-3.1630502,1781203492851
2094021284,3,0.74895006,12.004951,-3.5670002,1781203492861
2094021294,3,1.20105,9.501,-1.8840001,1781203492871
2094021304,3,1.4860501,9.90795,-1.1370001,1781203492881
2094021315,3,1.644,10.36695,-1.5280501,1781203492891
2094021325,3,1.7020501,9.661051,-1.9609501,1781203492901
2094021335,3,2.04705,9.496051,-2.42505,1781203492912
2094021345,3,2.5399501,9.616051,-2.6479502,1781203492922
2094021355,3,2.77395,9.37395,-2.22405,1781203492932
2094021365,3,2.904,9.324,-3.0340502,1781203492941
2094021375,3,2.904,9.61305,-3.69195,1781203492951
2094021385,3,3.0330002,9.57495,-3.453,1781203492961
2094021395,3,3.2410502,9.216001,-2.7270002,1781203492972
2094021405,3,3.2220001,9.24495,-2.7130501,1781203492983
2094021415,3,3.34905,9.052951,-2.6430001,1781203492992
2094021425,3,3.1360502,9.204,-2.4019501,1781203493002
2094021435,3,3.0570002,9.132,-2.09295,1781203493012
2094021446,3,3.08295,9.3,-2.0380502,1781203493022
2094021456,3,3.10695,9.361951,-2.02095,1781203493032
2094021466,3,3.1000502,9.37395,-1.9729501,1781203493042
2094021476,3,3.10695,9.43605,-2.01405,1781203493054
2094021486,3,3.03795,9.336,-0.91200006,1781203493064
2094021496,3,2.6950502,9.486,0.82500005,1781203493073
2094021506,3,-2.3170502,10.257001,25.882952,1781203493082
2094021516,3,2.0730002,8.554951,-8.095051,1781203493093
2094021526,3,2.6260502,8.29905,-10.99005,1781203493103
2094021536,3,3.1240501,8.47605,-8.64795,1781203493114
2094021546,3,2.59695,10.486951,0.028050002,1781203493128
2094021556,3,3.1890001,8.995951,-7.3290005,1781203493132
2094021566,3,3.1570501,8.887951,-4.2520504,1781203493143
2094021576,3,2.9160001,8.94495,-2.98305,1781203493154
2094021587,3,3.42105,9.313951,-2.9280002,1781203493162
2094021597,3,3.426,9.175051,-2.53605,1781203493172
2094021607,3,3.3079503,9.11295,-2.457,1781203493184
2094021617,3,3.177,9.036,-2.4090002,1781203493193
2094021627,3,3.045,8.976001,-2.457,1781203493202
2094021637,3,2.80095,9.217951,-2.28705,1781203493214
2094021647,3,2.59995,9.130051,-2.3080502,1781203493225
2094021657,3,2.50605,9.1699505,-2.5879502,1781203493234
2094021667,3,2.63295,9.18,-2.8180501,1781203493244
2094021677,3,2.7220502,9.123,-2.8900502,1781203493253
2094021687,3,2.7529502,9.1060505,-2.80395,1781203493263
2094021697,3,2.7480001,9.1699505,-2.6100001,1781203493273
2094021707,3,2.7859502,9.20895,-2.43705,1781203493283
2094021718,3,2.7120001,9.108001,-2.4810002,1781203493294
2094021728,3,2.667,9.204,-2.5740001,1781203493304
2094021738,3,2.703,9.237,-2.6580002,1781203493314
2094021748,3,2.71005,9.204,-2.63895,1781203493324
2094021758,3,2.7150002,9.14595,-2.7220502,1781203493335
2094021768,3,2.7769501,9.193951,-2.6910002,1781203493344
2094021778,3,2.8650002,9.1369505,-2.7130501,1781203493354
2094021788,3,2.8270502,9.08205,-2.7250502,1781203493365
2094021798,3,2.7859502,9.1699505,-2.76495,1781203493374
2094021808,3,2.76705,9.229951,-2.6940002,1781203493384
2094021818,3,2.73405,9.20205,-2.6119502,1781203493394
2094021828,3,2.703,9.144,-2.59995,1781203493405
2094021838,3,2.69805,9.184951,-2.595,1781203493415
2094021848,3,2.71005,9.196951,-2.6220002,1781203493425
2094021859,3,2.71005,9.1369505,-2.66505,1781203493435
2094021869,3,2.69295,9.163051,-2.7460501,1781203493445
2094021879,3,2.73795,9.18,-2.69805,1781203493455
2094021889,3,2.76495,9.184951,-2.6550002,1781203493465
2094021899,3,2.808,9.118051,-2.6530502,1781203493475
2094021909,3,2.7840002,9.144,-2.66205,1781203493485
2094021919,3,2.76195,9.187051,-2.6149502,1781203493495
2094021929,3,2.73405,9.192,-2.5789502,1781203493505
2094021939,3,2.70495,9.148951,-2.598,1781203493515
2094021949,3,2.74095,9.130051,-2.67705,1781203493526
2094021959,3,2.76705,9.11295,-2.739,1781203493536
2094021969,3,2.7840002,9.142051,-2.7799501,1781203493546
2094021979,3,2.7580502,9.205951,-2.706,1781203493556
2094021990,3,2.77005,9.204,-2.59995,1781203493566
2094022000,3,2.7120001,9.184951,-2.5740001,1781203493576
2094022010,3,2.6910002,9.175051,-2.59995,1781203493586
2094022020,3,2.667,9.13395,-2.65995,1781203493596
2094022030,3,2.736,9.096001,-2.77305,1781203493605
2094022040,3,2.7840002,9.142051,-2.7919502,1781203493616
2094022050,3,2.76495,9.17805,-2.7580502,1781203493626
2094022060,3,2.70495,9.192,-2.67195,1781203493637
2094022070,3,2.7169502,9.19005,-2.5519502,1781203493648
2094022080,3,2.7910502,9.21105,-2.4400501,1781203493658
2094022090,3,2.76495,9.130051,-2.4760501,1781203493667
2094022100,3,2.71005,9.099,-2.6149502,1781203493677
2094022110,3,2.7480001,9.144,-2.76795,1781203493688
2094022120,3,2.79795,9.166051,-2.80395,1781203493697
2094022131,3,2.8150501,9.15795,-2.7970502,1781203493708
2094022141,3,2.8150501,9.156,-2.7270002,1781203493718
2094022151,3,2.8129501,9.160951,-2.62905,1781203493727
2094022161,3,2.808,9.154051,-2.60505,1781203493737
2094022171,3,2.7820501,9.151051,-2.63595,1781203493747
2094022181,3,2.74095,9.1699505,-2.703,1781203493757
2094022191,3,2.76195,9.151051,-2.7250502,1781203493767
2094022201,3,2.7120001,9.13395,-2.71005,1781203493777
2094022211,3,2.6880002,9.154051,-2.63595,1781203493788
2094022221,3,2.70495,9.168,-2.5830002,1781203493798
2094022231,3,2.7499502,9.1390505,-2.5879502,1781203493808
2094022241,3,2.76495,9.118051,-2.634,1781203493818
2094022251,3,2.7910502,9.144,-2.67405,1781203493828
2094022262,3,2.80605,9.172951,-2.6790001,1781203493838
2094022272,3,2.772,9.175051,-2.67705,1781203493848
2094022282,3,2.76705,9.18,-2.71005,1781203493858
2094022292,3,2.7859502,9.181951,-2.7199502,1781203493868
2094022302,3,2.808,9.151051,-2.7460501,1781203493878
2094022312,3,2.7910502,9.12495,-2.7270002,1781203493888
2094022322,3,2.772,9.142051,-2.66205,1781203493898
2094022332,3,2.7480001,9.151051,-2.6170502,1781203493909
2094022342,3,2.7550502,9.1390505,-2.59995,1781203493920
2094022352,3,2.73405,9.1369505,-2.631,1781203493929
2094022362,3,2.74305,9.14595,-2.6509502,1781203493938
2094022372,3,2.7499502,9.14595,-2.6550002,1781203493950
2094022382,3,2.7150002,9.175051,-2.66205,1781203493959
2094022392,3,2.73405,9.19005,-2.67405,1781203493969
2094022403,3,2.7550502,9.181951,-2.67,1781203493979
2094022413,3,2.7499502,9.168,-2.6460001,1781203493990
2094022423,3,2.736,9.130051,-2.667,1781203493999
2094022433,3,2.7480001,9.13395,-2.6550002,1781203494009
2094022443,3,2.7889502,9.154051,-2.64105,1781203494019
2094022453,3,2.7960002,9.151051,-2.6530502,1781203494029
2094022463,3,2.80995,9.13395,-2.6790001,1781203494040
2094022473,3,2.80995,9.130051,-2.73705,1781203494049
2094022483,3,2.7960002,9.13395,-2.739,1781203494059
2094022493,3,2.79795,9.15795,-2.70795,1781203494070
2094022503,3,2.7960002,9.151051,-2.6839502,1781203494080
2094022513,3,2.80605,9.15795,-2.65995,1781203494090
2094022523,3,2.7910502,9.163051,-2.6149502,1781203494101
2094022534,3,2.7550502,9.1699505,-2.595,1781203494110
2094022544,3,2.73105,9.151051,-2.60505,1781203494121
2094022554,3,2.74305,9.12705,-2.63595,1781203494130
2094022564,3,2.736,9.12495,-2.6839502,1781203494140
2094022574,3,2.7940502,9.132,-2.73195,1781203494151
2094022584,3,2.7940502,9.168,-2.7130501,1781203494160
2094022594,3,2.7889502,9.18,-2.6839502,1781203494171
2094022604,3,2.7769501,9.192,-2.6479502,1781203494181
2094022614,3,2.77395,9.193951,-2.63895,1781203494192
2094022624,3,2.7460501,9.166051,-2.634,1781203494201
2094022634,3,2.7600002,9.151051,-2.67705,1781203494211
2094022644,3,2.7960002,9.1390505,-2.7220502,1781203494221
2094022654,3,2.808,9.14595,-2.7610502,1781203494230
2094022664,3,2.7769501,9.1699505,-2.69595,1781203494241
2094022675,3,2.77905,9.111,-2.667,1781203494251
2094022685,3,2.77395,9.108001,-2.634,1781203494261
2094022695,3,2.7859502,9.111,-2.6479502,1781203494271
2094022705,3,2.736,9.118051,-2.67,1781203494281
2094022715,3,2.7220502,9.166051,-2.71005,1781203494291
2094022725,3,2.7,9.25695,-2.66205,1781203494301
2094022735,3,2.6449502,9.175051,-2.5480502,1781203494311
2094022745,3,2.6550002,9.168,-2.6190002,1781203494321
2094022755,3,2.74095,9.283051,-2.7220502,1781203494331
2094022765,3,2.49705,9.288,-2.5740001,1781203494342
2094022775,3,2.463,9.25905,-2.7889502,1781203494352
2094022785,3,2.8920002,9.118051,-2.5759501,1781203494362
2094022795,3,3.009,9.148951,-2.7820501,1781203494372
2094022806,3,2.9490001,9.13395,-2.8639503,1781203494382
2094022816,3,2.86995,9.160951,-2.9980502,1781203494392
2094022826,3,2.559,9.175051,-3.081,1781203494402
2094022836,3,2.5729501,9.120001,-2.97405,1781203494412
2094022846,3,2.70705,9.012,-3.1320002,1781203494422
2094022856,3,2.5879502,9.11505,-2.67195,1781203494433
2094022866,3,3.009,8.86905,-2.45895,1781203494443
2094022876,3,3.01605,9.048,-2.4520502,1781203494452
2094022886,3,2.7889502,9.312,-2.2050002,1781203494463
2094022896,3,2.69295,9.40305,-2.2720501,1781203494473
2094022906,3,2.7,9.369,-2.4469502,1781203494482
2094022916,3,2.7120001,9.216001,-2.6820002,1781203494493
2094022926,3,2.80995,9.144,-2.76795,1781203494504
2094022936,3,2.77905,9.175051,-2.799,1781203494513
2094022947,3,2.73105,9.205951,-2.8560002,1781203494522
2094022957,3,2.6860502,9.229951,-2.83995,1781203494533
2094022967,3,2.5879502,9.196951,-2.87295,1781203494543
2094022977,3,2.664,9.07905,-2.8180501,1781203494554
2094022987,3,2.7480001,9.05805,-2.6460001,1781203494564
2094022997,3,2.7190502,9.11295,-2.49495,1781203494573
2094023007,3,2.72895,9.15795,-2.4019501,1781203494583
2094023017,3,2.6260502,9.148951,-2.4829502,1781203494593
2094023027,3,2.7150002,9.166051,-2.5090501,1781203494604
2094023037,3,2.832,9.096001,-2.4780002,1781203494614
2094023047,3,2.9640002,9.075001,-2.4829502,1781203494624
2094023057,3,2.98305,9.024,-2.595,1781203494634
2094023067,3,2.8990502,8.96895,-2.69805,1781203494644
2094023077,3,2.77395,9.03405,-2.7559502,1781203494656
2094023088,3,2.6520002,9.1390505,-2.65995,1781203494665
2094023098,3,2.56605,9.204,-2.53095,1781203494674
2094023108,3,2.5450501,9.199051,-2.4469502,1781203494684
2094023118,3,2.64,9.172951,-2.4520502,1781203494694
2094023128,3,2.73795,9.108001,-2.5480502,1781203494704
2094023138,3,2.7580502,9.022051,-2.69805,1781203494714
2094023148,3,2.607,8.854051,-2.69595,1781203494724
2094023158,3,2.22105,8.60505,-2.5120502,1781203494734
2094023168,3,2.8270502,10.044001,-2.9260502,1781203494744
2094023178,3,2.7240002,9.69705,-2.5240502,1781203494754
2094023188,3,2.0680501,8.668051,-2.32995,1781203494764
2094023198,3,2.15205,9.35505,-2.7940502,1781203494775
2094023208,3,2.74095,9.714001,-2.3149502,1781203494785
2094023219,3,3.08295,9.592051,-2.87295,1781203494795
2094023229,3,3.0690002,9.514951,-2.65995,1781203494805
2094023239,3,2.77905,9.213,-2.9280002,1781203494815
2094023249,3,2.6590502,8.99295,-2.9020503,1781203494825
2094023259,3,2.87295,9.22095,-2.7199502,1781203494835
2094023269,3,2.9179502,9.460051,-2.457,1781203494845
2094023279,3,2.5900502,9.30195,-2.46405,1781203494855
2094023289,3,2.3460002,9.3,-2.66205,1781203494866
2094023299,3,2.43195,9.18,-2.47305,1781203494875
2094023309,3,2.5450501,9.07005,-2.3370001,1781203494886
2094023319,3,2.5399501,9.199051,-2.32995,1781203494896
2094023329,3,2.60205,9.20895,-2.42505,1781203494906
2094023339,3,2.56605,9.15795,-2.6479502,1781203494917
2094023349,3,2.5399501,9.084001,-2.63595,1781203494926
2094023360,3,2.4870002,8.95005,-2.7850502,1781203494936
2094023370,3,2.427,9.132,-2.5189502,1781203494946
2094023380,3,2.664,9.4480505,-2.4880502,1781203494956
2094023390,3,2.74305,9.349951,-2.253,1781203494966
2094023400,3,2.8270502,9.309,-2.43,1781203494976
2094023410,3,2.80605,9.217951,-2.53605,1781203494986
2094023420,3,2.6160002,8.998051,-2.76495,1781203494996
2094023430,3,2.6500502,8.89305,-3.11295,1781203495006
2094023440,3,2.571,8.953051,-3.1219501,1781203495016
2094023450,3,2.7190502,9.24705,-3.03795,1781203495027
2094023460,3,2.703,9.625051,-2.60505,1781203495037
2094023470,3,2.676,9.60105,-2.3749502,1781203495047
2094023480,3,2.7120001,9.465,-2.3029501,1781203495058
2094023491,3,2.4439502,9.288,-2.36805,1781203495067
2094023501,3,2.2450502,9.181951,-2.5519502,1781203495077
2094023511,3,2.286,9.496051,-2.73405,1781203495087
2094023521,3,2.36505,9.592051,-2.70795,1781203495097
2094023531,3,2.43195,9.45495,-2.8879502,1781203495107
2094023541,3,2.262,9.345,-2.9520001,1781203495118
2094023551,3,2.2020001,9.151051,-2.91105,1781203495130
2094023561,3,2.3410501,9.312,-2.7919502,1781203495137
2094023571,3,2.43,9.27105,-2.6100001,1781203495148
2094023581,3,2.4060001,9.313951,-2.538,1781203495158
2094023591,3,2.38695,9.336,-2.6239502,1781203495168
2094023601,3,2.403,9.18,-2.706,1781203495178
2094023611,3,2.4180002,9.1390505,-2.9160001,1781203495188
2094023621,3,2.4100502,9.07005,-3.216,1781203495197
2094023632,3,2.41995,9.240001,-3.25605,1781203495207
2094023642,3,2.358,9.307051,-3.0499501,1781203495219
2094023652,3,2.36505,9.394951,-2.6890502,1781203495228
2094023662,3,2.3719501,9.35505,-2.3700001,1781203495237
2094023672,3,2.4100502,9.22095,-2.2699502,1781203495249
2094023682,3,2.4540002,9.196951,-2.358,1781203495259
2094023692,3,2.43405,9.166051,-2.5810502,1781203495269
2094023702,3,2.39595,9.156,-2.8249502,1781203495278
2094023712,3,2.3080502,9.192,-2.8920002,1781203495289
2094023722,3,2.43,9.20205,-2.83995,1781203495298
2094023732,3,2.5210502,9.3,-2.5830002,1781203495309
2094023742,3,2.4780002,9.37395,-2.5140002,1781203495319
2094023752,3,2.26395,9.37905,-2.56395,1781203495329
2094023763,3,2.2090502,9.4480505,-2.71005,1781203495339
2094023773,3,2.25495,9.490951,-2.8519502,1781203495349
2094023783,3,2.39895,9.484051,-3.01005,1781203495359
2094023793,3,2.45595,9.37905,-3.1219501,1781203495369
2094023803,3,2.43,9.24195,-3.1290002,1781203495380
2094023813,3,2.2720501,9.216001,-2.979,1781203495389
2094023823,3,2.154,9.217951,-2.634,1781203495399
2094023833,3,2.19705,9.37905,-2.43,1781203495409
2094023843,3,2.2120502,9.337951,-2.4490502,1781203495419
2094023853,3,2.15895,9.151051,-2.63895,1781203495429
2094023863,3,2.23095,9.0720005,-2.7820501,1781203495440
2094023873,3,2.32695,9.087001,-2.80605,1781203495450
2094023883,3,2.3100002,9.132,-2.77005,1781203495460
2094023893,3,2.334,9.204,-2.7970502,1781203495470
2094023904,3,2.35305,9.25695,-2.74095,1781203495480
2094023914,3,2.35995,9.361951,-2.6479502,1781203495490
2094023924,3,2.322,9.4150505,-2.538,1781203495500
2094023934,3,2.3820002,9.348001,-2.62905,1781203495510
2094023944,3,2.47005,9.39795,-2.832,1781203495521
2094023954,3,2.604,9.313951,-3.084,1781203495530
2094023964,3,2.64,9.30195,-3.34995,1781203495542
2094023974,3,2.5420501,9.393001,-3.3739502,1781203495550
2094023984,3,2.3359501,9.474,-3.1939502,1781203495561
2094023994,3,2.2690501,9.417001,-2.8609502,1781203495571
2094024004,3,2.3460002,9.360001,-2.5240502,1781203495581
2094024014,3,2.3719501,9.26895,-2.63595,1781203495591
2094024024,3,2.403,9.38595,-2.65995,1781203495601
2094024035,3,2.3410501,9.319051,-2.9260502,1781203495611
2094024045,3,2.42205,9.37395,-3.0169501,1781203495621
2094024055,3,2.4180002,9.240001,-3.15105,1781203495631
2094024065,3,2.25705,9.35505,-3.0889502,1781203495642
2094024075,3,2.1730502,9.451051,-3.0550501,1781203495652
2094024085,3,2.19495,9.1699505,-2.97105,1781203495662
2094024095,3,2.3430002,9.015,-2.943,1781203495672
2094024105,3,2.3820002,9.08205,-2.77005,1781203495682
2094024115,3,2.3719501,9.06495,-2.5789502,1781203495692
2094024125,3,2.28795,9.0720005,-2.4450002,1781203495702
2094024135,3,2.1760502,9.06705,-2.36295,1781203495712
2094024145,3,2.12295,9.06495,-2.5740001,1781203495722
2094024155,3,2.0700002,9.54405,-2.598,1781203495732
2094024165,3,2.0269501,9.43095,-2.84205,1781203495742
2094024176,3,2.23095,9.08895,-3.2389503,1781203495752
2094024186,3,2.26005,9.4459505,-3.0360003,1781203495762
2094024196,3,2.5450501,9.29205,-2.9860501,1781203495773
2094024206,3,2.3410501,9.295051,-3.1030502,1781203495782
2094024216,3,2.4100502,9.462001,-3.1030502,1781203495793
2094024226,3,2.229,9.229951,-2.7889502,1781203495802
2094024236,3,1.9390501,9.154051,-2.9550002,1781203495812
2094024246,3,2.0029502,9.10305,-2.358,1781203495822
2094024256,3,2.2810502,9.148951,-2.29395,1781203495832
2094024266,3,2.3359501,9.237,-2.3820002,1781203495842
2094024276,3,2.29605,9.312,-2.6860502,1781203495853
2094024286,3,2.229,9.522,-2.9230502,1781203495863
2094024296,3,2.427,9.369,-2.5240502,1781203495873
2094024307,3,2.4130502,9.199051,-2.42295,1781203495883
2094024317,3,2.1400502,9.051001,-2.4469502,1781203495893
2094024327,3,2.0659502,9.249001,-2.799,1781203495903
2094024337,3,2.25,9.36705,-3.1009502,1781203495914
2094024347,3,2.28795,9.28995,-3.18405,1781203495924
2094024357,3,2.193,9.29205,-3.2280002,1781203495933
2094024367,3,2.1349502,9.181951,-3.18,1781203495945
2094024377,3,2.334,9.07905,-3.0550501,1781203495953
2094024387,3,2.5540502,9.20895,-3.03795,1781203495964
2094024397,3,2.5540502,9.144,-3.0960002,1781203495974
2094024407,3,2.4870002,9.196951,-3.25395,1781203495984
2094024417,3,2.38395,9.096001,-3.2299502,1781203495993
2094024427,3,2.29095,9.20205,-3.1890001,1781203496004
2094024437,3,2.2050002,9.349951,-2.9590502,1781203496014
2094024448,3,2.2399502,9.309,-2.6820002,1781203496024
2094024458,3,2.226,9.237,-2.6550002,1781203496034
2094024468,3,2.13,9.217951,-2.7889502,1781203496044
2094024478,3,2.14695,9.26895,-2.96895,1781203496054
2094024488,3,1.9990501,9.628051,-3.1579502,1781203496064
2094024498,3,1.9560001,9.646951,-3.25395,1781203496074
2094024508,3,2.094,9.451051,-3.1890001,1781203496084
2094024518,3,2.214,9.39105,-3.2899501,1781203496094
2094024528,3,2.50395,9.228001,-3.486,1781203496105
2094024538,3,2.976,9.319051,-3.7110002,1781203496115
2094024548,3,2.8609502,9.154051,-3.62505,1781203496125
2094024558,3,2.4420002,9.148951,-3.2899501,1781203496134
2094024568,3,2.118,9.27105,-2.9230502,1781203496146
2094024579,3,2.121,9.297001,-2.56695,1781203496155
2094024589,3,2.2090502,9.1699505,-2.4490502,1781203496165
2094024599,3,2.013,8.964001,-2.69595,1781203496174
2094024609,3,1.9530001,8.93295,-2.9590502,1781203496185
2094024619,3,2.367,8.658,-2.9980502,1781203496196
2094024629,3,2.50395,8.45505,-2.9350502,1781203496206
2094024639,3,2.2429502,9.108001,-2.871,1781203496216
2094024649,3,2.319,9.20895,-2.538,1781203496226
2094024659,3,2.6880002,8.586,-2.32695,1781203496236
2094024669,3,2.973,8.316,-2.5240502,1781203496247
2094024679,3,2.9250002,8.347051,-2.70795,1781203496256
2094024689,3,2.7529502,8.6650505,-2.799,1781203496265
2094024699,3,2.5399501,8.98095,-2.7850502,1781203496275
2094024709,3,2.49705,9.03195,-2.8900502,1781203496286
2094024720,3,2.4750001,9.19005,-2.90895,1781203496295
2094024730,3,2.53005,9.324,-2.8519502,1781203496306
2094024740,3,2.7190502,9.25695,-2.8279502,1781203496317
2094024750,3,2.8609502,9.040951,-2.9520001,1781203496326
2094024760,3,3.0900002,8.862,-3.4650002,1781203496336
2094024770,3,3.1020002,9.007951,-3.8809502,1781203496346
2094024780,3,3.141,9.06,-3.83295,1781203496357
2094024790,3,3.14805,9.1390505,-3.7489502,1781203496366
2094024800,3,3.11205,9.228001,-3.5320501,1781203496377
2094024810,3,3.1669502,9.132,-3.38805,1781203496386
2094024820,3,3.1930501,9.04605,-3.453,1781203496396
2094024830,3,3.1050003,9.19005,-3.5650501,1781203496407
2094024840,3,3.0949502,9.193951,-3.5670002,1781203496417
2094024851,3,2.976,9.23295,-3.6079502,1781203496427
2094024861,3,3.0210001,9.27105,-3.76095,1781203496437
2094024871,3,2.98305,9.192,-4.0459504,1781203496447
2094024881,3,2.5800002,9.148951,-4.0939503,1781203496457
2094024891,3,2.5900502,9.132,-3.9310503,1781203496467
2094024901,3,2.7460501,9.003,-3.6390002,1781203496477
2094024911,3,3.0280502,8.754001,-3.31095,1781203496487
2094024921,3,3.21,8.78295,-3.0960002,1781203496498
2094024931,3,3.3060002,9.07005,-3.45,1781203496508
2094024941,3,3.3079503,9.0390005,-3.357,1781203496517
2094024951,3,3.04305,8.301001,-2.97405,1781203496528
2094024961,3,2.4870002,8.31105,-3.3660002,1781203496537
2094024971,3,2.83695,9.61095,-4.1130004,1781203496548
2094024981,3,3.28395,9.69495,-3.65595,1781203496557
2094024992,3,3.1189501,8.81595,-3.3760502,1781203496570
2094025002,3,2.703,8.301001,-3.14895,1781203496578
2094025012,3,2.35095,8.61705,-3.22005,1781203496588
2094025022,3,2.4750001,9.11295,-2.88,1781203496598
2094025032,3,2.47005,9.156,-3.0310502,1781203496608
2094025042,3,2.6089501,8.862,-3.31605,1781203496618
2094025052,3,3.04695,8.851951,-3.4069502,1781203496630
2094025062,3,3.1050003,8.3869505,-3.0240002,1781203496638
2094025072,3,3.1620002,8.469001,-2.7460501,1781203496649
2094025082,3,3.1020002,8.77095,-2.62695,1781203496659
2094025092,3,3.10695,8.94495,-2.361,1781203496670
2094025102,3,3.17895,8.854051,-2.1670501,1781203496681
2094025112,3,3.01095,8.839951,-2.4019501,1781203496690
2094025123,3,2.83395,8.710951,-2.73705,1781203496699
2094025133,3,2.76705,8.478001,-3.012,1781203496710
2094025143,3,2.64,8.46405,-3.2730002,1781203496720
2094025153,3,2.403,8.998051,-3.3090003,1781203496729
2094025163,3,2.6430001,9.72795,-2.96895,1781203496739
2094025173,3,2.71005,9.618,-2.76795,1781203496749
2094025183,3,2.64,9.280951,-3.11295,1781203496759
2094025193,3,2.60205,8.6650505,-3.5340002,1781203496769
2094025203,3,2.6520002,8.694,-4.03905,1781203496780
2094025213,3,2.73405,9.34305,-3.9190502,1781203496790
2094025223,3,2.72895,9.655951,-3.7020001,1781203496800
2094025233,3,2.4150002,9.481951,-3.55995,1781203496810
2094025243,3,2.331,9.25905,-3.6780002,1781203496820
2094025253,3,2.559,9.372001,-3.5959501,1781203496830
2094025264,3,2.73105,9.41895,-3.285,1781203496840
2094025274,3,2.7220502,9.280951,-3.0910501,1781203496850
2094025284,3,2.5540502,9.18,-3.1200001,1781203496860
2094025294,3,2.5540502,9.25905,-3.2440503,1781203496870
2094025304,3,2.7499502,9.405001,-3.3640501,1781203496881
2094025314,3,2.841,9.3810005,-3.4480503,1781203496890
2094025324,3,2.6860502,9.240001,-3.5790002,1781203496901
2094025334,3,2.5519502,9.163051,-3.522,1781203496911
2094025344,3,2.4780002,8.878051,-3.3949502,1781203496922
2094025354,3,2.42205,8.75895,-3.2659502,1781203496932
2094025364,3,2.4780002,9.010051,-3.1720502,1781203496940
2094025374,3,2.5159502,8.979,-3.1579502,1781203496952
2094025384,3,2.4060001,8.845051,-3.2280002,1781203496961
2094025395,3,2.18295,8.6650505,-3.4000502,1781203496971
2094025405,3,2.0629501,8.715,-3.5100002,1781203496981
2094025415,3,2.09205,8.719951,-3.4669502,1781203496992
2094025425,3,2.286,8.77995,-3.321,1781203497001
2094025435,3,2.25195,8.91705,-3.1249502,1781203497012
2094025445,3,2.2429502,8.89305,-3.1249502,1781203497022
2094025455,3,2.3749502,8.79705,-2.8249502,1781203497031
2094025465,3,2.5090501,9.06705,-2.80395,1781203497041
2094025475,3,2.5180502,9.163051,-2.9670002,1781203497052
2094025485,3,2.53005,9.08895,-3.0499501,1781203497062
2094025495,3,2.49195,8.787001,-2.9020503,1781203497071
2094025505,3,2.4180002,8.826,-3.01395,1781203497082
2094025515,3,2.53695,9.007951,-3.0700502,1781203497092
2094025525,3,2.63805,9.144,-3.0649502,1781203497102
2094025536,3,2.7190502,8.976001,-3.07395,1781203497113
2094025546,3,2.73405,8.920951,-3.1890001,1781203497122
2094025556,3,2.80995,9.004951,-3.1960502,1781203497132
2094025566,3,2.87295,9.156,-3.3019502,1781203497144
2094025576,3,2.703,9.24705,-3.46005,1781203497153
2094025586,3,2.5879502,9.148951,-3.5440502,1781203497162
2094025596,3,2.5420501,9.175051,-3.558,1781203497173
2094025606,3,2.4439502,9.175051,-3.522,1781203497183
2094025616,3,2.3770502,9.18,-3.5959501,1781203497192
2094025626,3,2.367,9.22095,-3.65595,1781203497202
2094025636,3,2.3170502,9.12705,-3.7180502,1781203497214
2094025646,3,2.23305,9.10305,-3.7110002,1781203497224
2094025656,3,2.25495,9.240001,-3.6420002,1781203497232
2094025666,3,2.25495,9.18,-3.5770502,1781203497242
2094025677,3,2.2380002,9.160951,-3.4480503,1781203497254
2094025687,3,2.217,9.04605,-3.357,1781203497263
2094025697,3,2.26005,8.967,-3.318,1781203497273
2094025707,3,2.3770502,9.156,-3.34695,1781203497283
2094025717,3,2.50095,9.15795,-3.2899501,1781203497294
2094025727,3,2.50605,8.89995,-3.3660002,1781203497302
2094025737,3,2.4870002,8.859,-3.52005,1781203497313
2094025747,3,2.5540502,8.986051,-3.5119503,1781203497324
2094025757,3,2.49405,8.971951,-3.3979502,1781203497333
2094025767,3,2.3050501,8.907001,-3.3379502,1781203497344
2094025777,3,2.18505,8.91705,-3.3070502,1781203497354
2094025787,3,2.2399502,8.896951,-3.24195,1781203497364
2094025797,3,2.3749502,8.98095,-3.24195,1781203497374
2094025808,3,2.535,8.839951,-3.3040502,1781203497384
2094025818,3,2.5849502,8.62695,-3.3709502,1781203497394
2094025828,3,2.70495,8.46195,-3.4140003,1781203497405
2094025838,3,2.7859502,8.524051,-3.4309502,1781203497414
2094025848,3,2.868,8.529,-3.2970002,1781203497425
2094025858,3,2.8270502,8.44995,-3.177,1781203497434
2094025868,3,2.7600002,8.625,-3.213,1781203497444
2094025878,3,2.77005,8.80395,-3.3330002,1781203497454
2094025888,3,2.772,8.875951,-3.5080502,1781203497464
2094025898,3,2.8560002,8.833051,-3.5460002,1781203497474
2094025908,3,2.9869502,8.833051,-3.5629501,1781203497484
2094025918,3,3.1570501,8.878051,-3.6319501,1781203497495
2094025928,3,3.3300002,8.895,-3.8070002,1781203497505
2094025938,3,3.5020502,8.93295,-4.05795,1781203497515
2094025949,3,3.6220503,8.91195,-4.1730003,1781203497525
2094025959,3,3.6340501,8.89305,-4.137,1781203497536
2094025969,3,3.5449502,8.90205,-4.05795,1781203497545
2094025979,3,3.4830003,8.995951,-3.9790502,1781203497556
2094025989,3,3.3229501,9.08895,-3.8500502,1781203497565
2094025999,3,3.2940001,9.052951,-3.76605,1781203497576
2094026009,3,3.22005,8.94795,-3.8569503,1781203497585
2094026019,3,3.1740003,9.024,-3.9220502,1781203497595
2094026029,3,3.2749503,8.95995,-3.9220502,1781203497605
2094026039,3,3.28905,8.81595,-3.9889503,1781203497616
2094026049,3,3.2940001,8.742001,-4.0729504,1781203497626
2094026059,3,3.28005,8.55,-4.14405,1781203497638
2094026069,3,3.2599502,8.625,-4.188,1781203497646
2094026080,3,3.1669502,8.718,-4.05105,1781203497656
2094026090,3,2.9350502,8.60295,-3.8140502,1781203497666
2094026100,3,2.736,8.371051,-3.52905,1781203497677
2094026110,3,2.69295,8.42595,-3.426,1781203497686
2094026120,3,2.73795,8.404051,-3.31395,1781203497696
2094026130,3,2.67105,8.32995,-3.28305,1781203497706
2094026140,3,2.664,8.433001,-3.2629502,1781203497716
2094026150,3,2.73795,8.46405,-3.25605,1781203497726
2094026160,3,2.70495,8.41395,-3.2989502,1781203497736
2094026170,3,2.7460501,8.51895,-3.45,1781203497746
2094026180,3,2.7769501,8.62905,-3.6109502,1781203497756
2094026190,3,2.67405,8.530951,-3.8190002,1781203497767
2094026200,3,2.6790001,8.718,-3.9750001,1781203497777
2094026210,3,2.8920002,9.022051,-3.9720001,1781203497787
2094026221,3,2.8530002,9.1060505,-3.9580503,1781203497797
2094026231,3,2.73795,9.1060505,-3.8860502,1781203497807
2094026241,3,2.52495,8.859,-3.8719501,1781203497817
2094026251,3,2.48895,8.857051,-3.8359501,1781203497827
2094026261,3,2.7580502,9.228001,-3.6870003,1781203497837
2094026271,3,2.98005,9.204,-3.5989501,1781203497847
2094026281,3,3.0949502,9.181951,-3.38595,1781203497857
2094026291,3,3.3229501,9.11505,-3.00495,1781203497868
2094026301,3,3.5790002,9.22095,-2.80905,1781203497877
2094026311,3,3.4740002,9.283051,-3.2059503,1781203497888
2094026321,3,2.9560502,8.490001,-3.7180502,1781203497898
2094026331,3,2.8990502,7.97805,-4.3980002,1781203497908
2094026341,3,3.18405,8.373,-4.6210504,1781203497919
2094026352,3,3.2029502,9.213,-4.4890504,1781203497928
2094026362,3,2.83695,9.561001,-4.03905,1781203497938
2094026372,3,2.8650002,9.56295,-3.58695,1781203497948
2094026382,3,2.841,9.38595,-3.5530503,1781203497958
2094026392,3,2.8200002,8.7630005,-3.759,1781203497968
2094026402,3,2.90595,8.93595,-4.23105,1781203497978
2094026412,3,2.7960002,8.90505,-4.37895,1781203497988
2094026422,3,2.53305,8.884951,-4.4940004,1781203497998
2094026432,3,2.29095,9.07005,-4.4700003,1781203498008
2094026442,3,2.4130502,9.20205,-4.26405,1781203498019
2094026452,3,2.50095,9.118051,-3.9,1781203498028
2094026462,3,2.50395,8.845051,-3.522,1781203498039
2094026472,3,2.36295,8.586,-3.357,1781203498049
2094026482,3,2.2429502,8.32995,-3.21795,1781203498059
2094026493,3,2.18805,8.34195,-2.9329503,1781203498069
2094026503,3,2.29305,8.674951,-2.73,1781203498079
2094026513,3,2.5780501,9.015,-2.7270002,1781203498089
2094026523,3,2.7,9.0,-2.89995,1781203498099
2094026533,3,2.571,8.47605,-3.012,1781203498109
2094026543,3,2.38905,8.1,-3.2730002,1781203498119
2094026553,3,2.6160002,8.14995,-3.7060502,1781203498131
2094026563,3,2.8579502,8.466001,-3.8929503,1781203498140
2094026573,3,2.6119502,8.96205,-3.8860502,1781203498149
2094026583,3,2.2690501,9.08895,-3.7849503,1781203498160
2094026593,3,2.14995,9.010051,-3.4120502,1781203498170
2094026603,3,1.9459502,8.8279505,-3.0700502,1781203498180
2094026613,3,1.8049501,8.842051,-3.1290002,1781203498190
2094026624,3,1.9650002,8.88105,-3.38595,1781203498200
2094026634,3,2.29305,9.016951,-3.7020001,1781203498210
2094026644,3,2.53005,9.196951,-3.8910003,1781203498221
2094026654,3,2.6809502,9.40305,-3.8140502,1781203498229
2094026664,3,2.7270002,9.34305,-3.5770502,1781203498239
2094026674,3,2.6500502,9.0,-3.52395,1781203498250
2094026684,3,2.535,8.838,-3.7450502,1781203498259
2094026694,3,2.56095,8.842051,-4.0080004,1781203498270
2094026704,3,2.6140501,8.92605,-4.3699503,1781203498280
2094026714,3,2.46795,8.98095,-4.3980002,1781203498290
2094026724,3,2.466,9.154051,-4.3099504,1781203498302
2094026734,3,2.499,9.118051,-4.00995,1781203498312
2094026744,3,2.5729501,8.842051,-3.7570503,1781203498320
2094026754,3,2.6119502,8.646001,-3.62505,1781203498331
2094026765,3,2.59995,8.566951,-3.55095,1781203498342
2094026775,3,2.64,8.76795,-3.5749502,1781203498351
2094026785,3,2.69805,8.995951,-3.7180502,1781203498361
2094026795,3,2.703,8.94495,-3.9409502,1781203498372
2094026805,3,2.53305,8.94495,-4.1659503,1781203498381
2094026815,3,2.5210502,8.62695,-4.1130004,1781203498391
2094026825,3,2.56395,8.530951,-3.9100502,1781203498401
2094026835,3,2.7960002,8.54595,-3.66105,1781203498412
2094026845,3,3.0190501,8.57205,-3.55995,1781203498422
2094026855,3,3.00195,8.54595,-3.69195,1781203498432
2094026865,3,2.9950502,8.682,-4.1059504,1781203498442
2094026875,3,2.91105,8.77995,-4.48395,1781203498452
2094026885,3,2.77905,8.6959505,-4.5079503,1781203498463
2094026896,3,2.7150002,8.72505,-4.2120004,1781203498472
2094026906,3,2.72895,8.60805,-3.7830002,1781203498482
2094026916,3,2.97105,8.569051,-3.69705,1781203498492
2094026926,3,3.177,8.45205,-3.903,1781203498502
2094026936,3,3.11205,8.398951,-4.30695,1781203498513
2094026946,3,2.9590502,8.253,-4.43205,1781203498521
2094026956,3,2.9610002,8.3560505,-4.3429503,1781203498533
2094026966,3,3.05205,8.63595,-4.2070503,1781203498543
2094026976,3,3.078,8.93295,-3.9550502,1781203498554
2094026986,3,2.9179502,8.814,-3.6990001,1781203498563
2094026996,3,2.8530002,8.634001,-3.5359502,1781203498573
2094027006,3,2.8849502,8.60505,-3.486,1781203498583
2094027016,3,3.08295,8.863951,-3.5100002,1781203498593
2094027026,3,3.2440503,8.862,-3.76605,1781203498603
2094027037,3,3.4350002,8.907001,-4.092,1781203498613
2094027047,3,3.6870003,8.854051,-4.6189504,1781203498624
2094027057,3,3.7080002,8.674951,-4.78095,1781203498633
2094027067,3,3.8470502,8.57205,-4.77405,1781203498645
2094027077,3,3.8040001,8.44695,-4.6639504,1781203498653
2094027087,3,3.8539503,8.233951,-4.7119503,1781203498664
2094027097,3,3.732,8.16195,-4.8769503,1781203498673
2094027107,3,3.41595,8.581051,-4.65,1781203498683
2094027117,3,3.0229502,8.81805,-4.14195,1781203498693
2094027127,3,2.86995,8.821051,-3.8839502,1781203498704
2094027137,3,2.94195,8.713051,-3.8719501,1781203498713
2094027147,3,2.9659503,8.380051,-3.99795,1781203498724
2094027157,3,2.9179502,8.212951,-4.08705,1781203498734
2094027168,3,2.976,8.569051,-4.176,1781203498744
2094027178,3,2.8579502,8.847,-4.2499504,1781203498754
2094027188,3,2.69805,8.589001,-4.197,1781203498764
2094027198,3,2.6520002,8.500051,-4.0339503,1781203498774
2094027208,3,2.56395,8.32005,-3.7830002,1781203498784
2094027218,3,2.5210502,8.371051,-3.7230003,1781203498794
2094027228,3,2.6430001,8.67195,-3.7450502,1781203498804
2094027238,3,2.703,8.677051,-3.9310503,1781203498814
2094027248,3,2.73795,8.63895,-4.0939503,1781203498825
2094027258,3,2.9920502,8.6629505,-3.8449502,1781203498834
2094027268,3,3.3589501,8.941051,-3.6420002,1781203498844
2094027278,3,3.5170503,8.91405,-3.3979502,1781203498854
2094027288,3,3.3040502,8.191051,-3.52395,1781203498865
2094027298,3,2.94705,7.4869504,-4.056,1781203498875
2094027309,3,3.1980002,7.9800005,-4.5799503,1781203498885
2094027319,3,3.1690502,8.983951,-4.34805,1781203498895
2094027329,3,2.72895,9.29205,-3.8260503,1781203498906
2094027339,3,2.631,8.9740505,-3.6150002,1781203498918
2094027349,3,2.49705,8.554951,-3.58695,1781203498925
2094027359,3,2.5129502,8.541,-3.8140502,1781203498935
2094027369,3,2.67405,8.88105,-4.1680503,1781203498945
2094027379,3,2.71005,8.89995,-4.5040503,1781203498955
2094027389,3,2.6860502,8.90505,-4.6399503,1781203498965
2094027399,3,2.76195,9.144,-4.6860003,1781203498975
2094027409,3,3.0210001,9.37395,-4.4560504,1781203498985
2094027419,3,2.97105,9.297001,-4.19205,1781203498996
2094027429,3,2.772,8.80395,-4.02705,1781203499006
2094027440,3,2.607,8.536051,-4.221,1781203499016
2094027450,3,2.64,8.500051,-4.2979503,1781203499026
2094027460,3,2.7499502,9.1060505,-4.15395,1781203499036
2094027470,3,2.9560502,9.261001,-4.2379503,1781203499046
2094027480,3,2.9320502,9.06,-4.329,1781203499056
2094027490,3,2.559,9.0,-4.00605,1781203499066
2094027500,3,2.18805,8.409,-3.8260503,1781203499076
2094027510,3,2.6809502,8.40705,-4.4700003,1781203499087
2094027520,3,2.90595,8.7300005,-4.5799503,1781203499097
2094027530,3,2.523,9.111,-4.66905,1781203499106
2094027540,3,2.4490502,8.172,-4.35795,1781203499116
2094027550,3,2.50095,8.31795,-4.056,1781203499127
2094027560,3,2.628,8.574,-4.03905,1781203499137
2094027570,3,2.49405,8.004001,-3.558,1781203499147
2094027581,3,2.28795,8.634001,-3.66105,1781203499156
2094027591,3,2.48895,8.410951,-3.4309502,1781203499168
2094027601,3,2.3749502,8.719951,-3.5530503,1781203499176
2094027611,3,2.355,8.530951,-3.7470002,1781203499188
2094027621,3,2.1040502,8.59605,-3.7759502,1781203499197
2094027631,3,2.2429502,8.81595,-4.1950502,1781203499207
2094027641,3,2.52795,8.875951,-4.08195,1781203499216
2094027651,3,2.7,8.694,-4.4940004,1781203499227
2094027661,3,2.6520002,8.70405,-4.353,1781203499238
2094027671,3,2.5180502,8.707951,-4.2379503,1781203499248
2094027681,3,2.52495,8.325001,-4.02,1781203499258
2094027691,3,2.7460501,8.718,-4.1280003,1781203499268
2094027701,3,2.8200002,8.529,-4.19205,1781203499277
2094027712,3,2.7120001,8.931001,-4.2000003,1781203499287
2094027722,3,2.66205,8.74905,-4.176,1781203499298
2094027732,3,2.7600002,8.838,-3.8740501,1781203499308
2094027742,3,2.976,8.920951,-4.257,1781203499318
2094027752,3,2.73405,8.373,-4.176,1781203499328
2094027762,3,2.73405,8.6959505,-4.4490004,1781203499338
2094027772,3,2.8530002,8.581051,-4.458,1781203499348
2094027782,3,2.9640002,8.835,-4.6399503,1781203499358
2094027792,3,2.9250002,8.392051,-4.4029503,1781203499368
2094027802,3,2.67105,8.46195,-4.4220004,1781203499379
2094027812,3,2.60205,7.99695,-4.14405,1781203499388
2094027822,3,2.631,8.530951,-4.1610003,1781203499398
2094027832,3,2.9590502,8.509951,-4.1730003,1781203499408
2094027842,3,2.9989502,8.62905,-4.19205,1781203499419
2094027853,3,3.2029502,8.634001,-4.3000503,1781203499429
2094027863,3,3.18405,8.41905,-4.0609503,1781203499439
2094027873,3,3.2010002,8.397,-4.314,1781203499449
2094027883,3,3.1720502,8.43105,-4.4440503,1781203499459
2094027893,3,3.2719502,8.754001,-4.95405,1781203499469
2094027903,3,3.153,8.701051,-5.1330004,1781203499480
2094027913,3,3.1240501,8.90505,-5.2819505,1781203499489
2094027923,3,3.3420002,8.719951,-5.22405,1781203499500
2094027933,3,3.3420002,8.553,-4.9680004,1781203499509
2094027943,3,3.1219501,8.469001,-4.72905,1781203499520
2094027953,3,3.01395,8.48805,-4.46505,1781203499529
2094027963,3,3.1000502,8.502001,-4.37895,1781203499540
2094027973,3,3.25305,8.622001,-4.401,1781203499551
2094027984,3,3.2580001,8.743951,-4.3240504,1781203499561
2094027994,3,3.1050003,8.490001,-4.3650002,1781203499571
2094028004,3,3.15,8.3230505,-4.281,1781203499580
2094028014,3,3.18105,8.22,-4.43205,1781203499590
2094028024,3,2.9640002,8.136001,-4.4560504,1781203499600
2094028034,3,2.94705,8.328,-4.425,1781203499610
2094028044,3,3.0310502,8.377951,-4.26195,1781203499620
2094028054,3,3.0900002,8.392051,-4.2330003,1781203499631
2094028064,3,3.1690502,8.505,-4.2330003,1781203499640
2094028074,3,3.0949502,8.347051,-4.2910504,1781203499650
2094028084,3,2.9560502,8.13105,-4.36695,1781203499661
2094028094,3,2.9539502,8.188951,-4.413,1781203499673
2094028104,3,3.0949502,8.191051,-4.4050503,1781203499681
2094028114,3,3.1380002,8.325001,-4.3720503,1781203499691
2094028125,3,3.2749503,8.347051,-4.34595,1781203499701
2094028135,3,3.25605,8.088,-4.2070503,1781203499712
2094028145,3,3.354,8.023951,-4.28595,1781203499721
2094028155,3,3.41595,8.2560005,-4.18995,1781203499732
2094028165,3,3.3439503,8.622001,-4.4220004,1781203499741
2094028175,3,3.21705,8.65305,-4.458,1781203499751
2094028185,3,3.0660002,8.61495,-4.6309505,1781203499761
2094028195,3,2.9899502,8.46195,-4.5540004,1781203499772
2094028205,3,3.0640502,8.65995,-4.36005,1781203499782
2094028215,3,3.2749503,8.67195,-4.3819504,1781203499792
2094028225,3,3.1930501,8.59605,-4.341,1781203499801
2094028235,3,3.08295,8.3560505,-4.35795,1781203499812
2094028245,3,3.0690002,8.172,-4.19205,1781203499822
2094028255,3,3.2220001,8.64795,-4.116,1781203499832
2094028266,3,3.1980002,8.778001,-4.19205,1781203499842
2094028276,3,3.0690002,8.610001,-4.386,1781203499852
2094028286,3,2.97795,8.38305,-4.4940004,1781203499862
2094028296,3,2.9520001,8.313001,-4.59,1781203499872
2094028306,3,3.045,8.42595,-4.69995,1781203499882
2094028316,3,3.2410502,8.6320505,-4.7569504,1781203499892
2094028326,3,3.3060002,8.55,-4.71,1781203499903
2094028336,3,3.1669502,8.268001,-4.6590004,1781203499913
2094028346,3,3.114,8.359051,-4.671,1781203499923
2094028356,3,3.10995,8.577001,-4.64505,1781203499933
2094028366,3,3.0330002,8.65095,-4.6860003,1781203499943
2094028376,3,2.937,8.46405,-4.65705,1781203499954
2094028386,3,2.8129501,8.337001,-4.5799503,1781203499964
2094028397,3,2.86995,8.481,-4.3819504,1781203499973
2094028407,3,2.94195,8.65305,-4.1950502,1781203499983
2094028417,3,2.9160001,8.6629505,-3.9820502,1781203499993
2094028427,3,2.90595,8.674951,-3.8860502,1781203500004
2094028437,3,2.88,8.554951,-4.0420504,1781203500013
2094028447,3,2.8290002,8.55,-4.4490004,1781203500023
2094028457,3,2.83395,8.76105,-4.722,1781203500033
2094028467,3,2.73405,8.562,-4.7449503,1781203500044
2094028477,3,2.7150002,8.554951,-4.69005,1781203500053
2094028487,3,2.80605,8.826,-4.5420003,1781203500064
2094028497,3,2.8200002,8.622001,-4.401,1781203500074
2094028507,3,2.8630502,8.73495,-4.425,1781203500084
2094028517,3,2.87295,8.74695,-4.46505,1781203500094
2094028527,3,2.83395,8.65995,-4.6519504,1781203500104
2094028538,3,2.80305,8.680051,-4.6140003,1781203500114
2094028548,3,2.76705,8.566951,-4.3840504,1781203500124
2094028558,3,2.6809502,8.514,-4.044,1781203500134
2094028568,3,2.7,8.63595,-3.7540503,1781203500145
2094028578,3,2.90595,8.75595,-3.69705,1781203500154
2094028588,3,3.0979502,8.63895,-4.01805,1781203500165
2094028598,3,3.1720502,8.445001,-4.46505,1781203500174
2094028608,3,2.9920502,8.196,-4.839,1781203500185
2094028618,3,2.736,8.13105,-5.24595,1781203500195
2094028628,3,2.6260502,8.26305,-5.3920503,1781203500204
2094028638,3,2.4079502,8.65305,-5.2120504,1781203500217
2094028648,3,2.262,8.65095,-4.7569504,1781203500226
2094028658,3,2.463,8.644051,-4.19205,1781203500234
2094028669,3,2.664,8.401951,-3.795,1781203500245
2094028679,3,2.73105,8.127001,-3.9190502,1781203500255
2094028689,3,2.7169502,7.9489503,-4.5589504,1781203500265
2094028699,3,2.64,8.083051,-5.03805,1781203500274
2094028709,3,2.7120001,8.404051,-5.10195,1781203500285
2094028719,3,2.7120001,8.509951,-4.7719502,1781203500295
2094028729,3,2.63595,8.548051,-4.413,1781203500306
2094028739,3,2.667,8.48295,-4.3549504,1781203500315
2094028749,3,2.8129501,8.44005,-4.578,1781203500326
2094028759,3,3.0499501,8.6959505,-4.815,1781203500335
2094028769,3,3.2269502,9.03195,-4.4940004,1781203500345
2094028779,3,3.0930002,9.028951,-4.06995,1781203500356
2094028789,3,2.73795,8.65095,-3.8860502,1781203500366
2094028799,3,2.331,7.9210505,-4.374,1781203500376
2094028810,3,2.35995,8.091001,-4.8120003,1781203500386
2094028820,3,2.595,8.48595,-4.887,1781203500396
2094028830,3,2.6790001,8.569051,-4.49205,1781203500406
2094028840,3,2.703,8.833051,-3.9600003,1781203500416
2094028850,3,2.8530002,8.826,-3.7930503,1781203500426
2094028860,3,2.8609502,8.46405,-3.8929503,1781203500436
2094028870,3,2.8489501,8.232,-4.149,1781203500446
2094028880,3,2.7550502,8.27505,-4.425,1781203500456
2094028890,3,2.50095,8.613001,-4.60395,1781203500466
2094028900,3,2.19,8.625,-4.5589504,1781203500476
2094028910,3,2.04705,8.481,-4.4370003,1781203500487
2094028920,3,2.2480502,8.277,-4.5799503,1781203500497
2094028930,3,2.5879502,8.12895,-4.6210504,1781203500507
2094028941,3,2.9350502,8.170051,-4.83405,1781203500516
2094028951,3,3.2770503,7.9519506,-5.07105,1781203500527
2094028961,3,3.56205,8.20995,-5.334,1781203500539
2094028971,3,3.55995,8.505,-5.46105,1781203500548
2094028981,3,3.4279501,8.83005,-5.3440504,1781203500557
2094028991,3,3.2629502,9.06,-5.385,1781203500567
2094029001,3,3.3010502,8.562,-5.3419504,1781203500577
2094029011,3,3.3709502,8.44005,-5.3250003,1781203500587
2094029021,3,3.4020002,8.23695,-5.2650003,1781203500597
2094029031,3,3.4740002,8.257951,-5.169,1781203500607
2094029041,3,3.6360002,8.481,-5.10195,1781203500620
2094029051,3,3.5380502,8.598001,-4.8960004,1781203500628
2094029061,3,3.4060502,8.739,-4.5870004,1781203500638
2094029071,3,3.3060002,8.73495,-4.48395,1781203500648
2094029082,3,3.0349503,8.45895,-4.51095,1781203500658
2094029092,3,3.0550501,8.43795,-4.7449503,1781203500668
2094029102,3,3.2010002,8.45205,-4.92495,1781203500678
2094029112,3,3.1650002,8.337001,-5.124,1781203500688
2094029122,3,2.98005,8.233951,-5.0950503,1781203500698
2094029132,3,2.9280002,8.059051,-4.8460503,1781203500708
2094029142,3,2.8990502,7.8460503,-4.602,1781203500718
2094029152,3,2.8920002,7.899,-4.59,1781203500729
2094029162,3,2.9950502,8.172,-4.78095,1781203500739
2094029172,3,3.0330002,8.27505,-4.81005,1781203500748
2094029182,3,3.0619502,8.208,-4.6540504,1781203500759
2094029192,3,3.04305,7.9350004,-4.4029503,1781203500769
2094029202,3,3.05205,7.9129505,-4.2379503,1781203500779
2094029213,3,3.1549501,8.0449505,-4.2070503,1781203500789
2094029223,3,3.18405,8.059051,-4.3380003,1781203500799
2094029233,3,3.1669502,8.19795,-4.52505,1781203500809
2094029243,3,3.07605,8.17905,-4.6260004,1781203500819
2094029253,3,2.9680502,8.347051,-4.602,1781203500829
2094029263,3,3.0190501,8.46195,-4.6309505,1781203500840
2094029273,3,3.14805,8.347051,-4.72905,1781203500849
2094029283,3,3.31995,8.364,-4.839,1781203500859
2094029293,3,3.28695,8.401951,-4.8240004,1781203500869
2094029303,3,3.1600502,8.368051,-4.7380505,1781203500880
2094029313,3,3.0640502,8.574,-4.6210504,1781203500890
2094029323,3,3.009,8.63595,-4.578,1781203500900
2094029333,3,2.9560502,8.409,-4.65,1781203500911
2094029343,3,2.87505,8.304001,-4.68795,1781203500920
2094029354,3,2.9520001,8.325001,-4.75995,1781203500930
2094029364,3,2.9490001,8.32005,-4.84095,1781203500940
2094029374,3,2.9350502,8.376,-5.0020504,1781203500950
2094029384,3,2.8170002,8.44005,-5.1210003,1781203500960
2094029394,3,2.47305,8.373,-5.06895,1781203500970
2094029404,3,2.5470002,8.60505,-4.96605,1781203500980
2094029414,3,2.7940502,8.857051,-4.8559504,1781203500990
2094029424,3,2.8579502,8.81595,-4.95405,1781203501002
2094029434,3,2.841,8.60295,-5.0500503,1781203501011
2094029444,3,2.71005,8.46405,-5.05695,1781203501021
2094029454,3,2.6089501,8.577001,-5.0280004,1781203501031
2094029464,3,2.72895,8.93805,-5.1070504,1781203501043
2094029474,3,2.7580502,9.027,-5.1450005,1781203501051
2094029485,3,2.7550502,8.884951,-5.169,1781203501061
2094029495,3,2.7499502,8.7300005,-5.1720004,1781203501071
2094029505,3,2.79795,8.81595,-5.1210003,1781203501081
2094029515,3,2.8939502,9.06,-5.1379504,1781203501092
2094029525,3,2.976,8.93595,-4.98705,1781203501101
2094029535,3,2.80605,8.622001,-4.75995,1781203501111
2094029545,3,2.5210502,8.224951,-4.566,1781203501121
2094029555,3,2.2090502,8.04,-4.49895,1781203501134
2094029565,3,2.1040502,8.359051,-4.4869504,1781203501143
2094029575,3,2.43405,8.65305,-4.4370003,1781203501152
2094029585,3,2.7120001,8.347051,-4.2910504,1781203501162
2094029595,3,2.736,8.136001,-4.5490503,1781203501172
2094029605,3,2.8270502,8.200951,-4.80495,1781203501182
2094029615,3,2.7,8.224951,-4.88205,1781203501192
2094029626,3,2.43405,8.13105,-4.8630004,1781203501203
2094029636,3,2.20005,7.9210505,-4.8630004,1781203501212
2094029646,3,2.12295,8.035951,-4.815,1781203501223
2094029656,3,2.4439502,8.40705,-4.75995,1781203501232
2094029666,3,2.80095,8.589001,-4.77705,1781203501243
2094029676,3,2.6809502,8.51895,-4.9350004,1781203501253
2094029686,3,2.56395,8.30595,-4.9440002,1781203501262
2094029696,3,2.6209502,8.18595,-4.8510003,1781203501272
2094029706,3,2.6449502,8.191051,-5.04495,1781203501282
2094029716,3,2.6209502,8.505,-5.1600003,1781203501292
2094029726,3,2.6160002,8.581051,-4.992,1781203501302
2094029736,3,2.595,8.44305,-4.7140503,1781203501312
2094029746,3,2.5729501,8.19795,-4.6260004,1781203501323
2094029757,3,2.7840002,8.07405,-4.7689505,1781203501333
2094029767,3,2.832,7.9110003,-4.90605,1781203501343
2094029777,3,2.8819501,8.0140505,-5.24595,1781203501353
2094029787,3,2.9230502,8.172,-5.3700004,1781203501363
2094029797,3,2.904,8.221951,-5.4420004,1781203501373
2094029807,3,2.83395,8.196,-5.23395,1781203501383
2094029817,3,2.83695,8.170051,-4.992,1781203501393
2094029827,3,3.03795,8.313001,-4.7910004,1781203501403
2094029837,3,3.0550501,8.062051,-4.54395,1781203501413
2094029847,3,2.913,7.8439503,-4.35795,1781203501424
2094029857,3,2.8920002,7.9420505,-4.3240504,1781203501433
2094029867,3,3.0330002,8.380051,-4.37895,1781203501444
2094029877,3,3.1290002,8.43795,-4.42695,1781203501454
2094029887,3,3.2989502,8.689051,-4.5490503,1781203501464
2094029898,3,3.5089502,8.622001,-5.02995,1781203501474
2094029908,3,3.6049502,8.995951,-5.7289505,1781203501484
2094029918,3,3.5839503,9.807,-5.7510004,1781203501494
2094029928,3,2.904,9.891001,-5.1790504,1781203501505
2094029938,3,2.5210502,9.151051,-5.14995,1781203501515
2094029948,3,2.46795,8.3869505,-5.1859503,1781203501525
2094029958,3,2.83695,8.19795,-5.208,1781203501536
2094029968,3,3.22005,8.58405,-5.1049504,1781203501544
2094029978,3,3.4279501,8.377951,-5.46105,1781203501555
2094029988,3,3.18405,8.3560505,-5.8159504,1781203501566
2094029998,3,2.83395,8.497951,-6.1390505,1781203501576
2094030008,3,2.35305,8.14995,-5.5740004,1781203501585
2094030018,3,2.1709502,8.301001,-5.25495,1781203501595
2094030029,3,2.56095,8.78295,-5.36805,1781203501604
2094030039,3,3.2650502,8.787001,-5.29605,1781203501614
2094030049,3,3.6000001,8.095051,-5.4760504,1781203501625
2094030059,3,3.5959501,7.3560004,-5.8039503,1781203501635
2094030069,3,3.2719502,7.116,-5.808,1781203501644
2094030079,3,2.59695,7.1020503,-5.859,1781203501656
2094030089,3,2.3029501,6.9700503,-5.53095,1781203501666
2094030099,3,2.6260502,7.68795,-4.90605,1781203501675
2094030109,3,3.078,8.328,-4.7119503,1781203501684
2094030119,3,2.973,7.8850503,-4.4490004,1781203501695
2094030129,3,2.9590502,7.42005,-4.563,1781203501707
2094030139,3,3.1189501,7.2049503,-4.9030504,1781203501716
2094030149,3,3.48795,7.4080505,-4.887,1781203501726
2094030159,3,3.246,7.4490004,-5.0059505,1781203501736
2094030170,3,3.4380002,7.6120505,-5.3029504,1781203501747
2094030180,3,3.8250003,8.158051,-5.4300003,1781203501756
2094030190,3,3.3370502,7.8420005,-5.39895,1781203501766
2094030200,3,2.868,7.8420005,-5.1450005,1781203501777
2094030210,3,2.86995,8.389951,-4.98,1781203501787
2094030220,3,2.73795,7.8940506,-5.0950503,1781203501797
2094030230,3,2.36505,9.55095,-5.4490504,1781203501806
2094030240,3,2.121,9.975,-5.5189505,1781203501816
2094030250,3,2.53005,9.802051,-4.602,1781203501826
2094030260,3,3.4830003,8.766001,-4.9080005,1781203501836
2094030270,3,3.35595,8.068951,-5.0400004,1781203501846
2094030280,3,2.877,7.4149504,-4.7260504,1781203501857
2094030290,3,3.49005,7.6050005,-4.5420003,1781203501867
2094030301,3,4.23,8.035951,-5.8110003,1781203501877
2094030311,3,4.3830004,9.273001,-5.5740004,1781203501887
2094030321,3,3.55995,10.34805,-3.8500502,1781203501897
2094030331,3,4.11795,9.316051,-2.607,1781203501907
2094030341,3,3.5530503,7.7719502,-4.15605,1781203501918
2094030351,3,2.904,6.5659504,-5.5069504,1781203501927
2094030361,3,2.9560502,7.7119503,-6.5080504,1781203501937
2094030371,3,3.5089502,8.44995,-6.90495,1781203501948
2094030381,3,2.9920502,8.686951,-6.603,1781203501957
2094030391,3,2.3080502,8.088,-5.7960005,1781203501968
2094030401,3,2.5159502,8.15295,-5.0730004,1781203501977
2094030411,3,2.868,7.7460003,-4.6470003,1781203501988
2094030421,3,2.8560002,7.4029503,-4.671,1781203501998
2094030431,3,2.43405,7.7650504,-5.2990503,1781203502009
2094030442,3,1.8910501,9.469951,-4.75005,1781203502017
2094030452,3,2.04405,10.68105,-4.1059504,1781203502028
2094030462,3,1.9960501,10.64805,-3.0550501,1781203502038
2094030472,3,2.3149502,8.44695,-3.96705,1781203502048
2094030482,3,2.14695,7.2330003,-4.992,1781203502058
2094030492,3,2.9659503,7.5730505,-6.31395,1781203502068
2094030502,3,3.1339502,7.6429505,-5.98605,1781203502078
2094030512,3,3.07395,7.8919506,-6.0379505,1781203502088
2094030522,3,2.937,8.7949505,-5.7510004,1781203502098
2094030532,3,2.6569502,8.095051,-4.92705,1781203502108
2094030542,3,2.3359501,7.9249506,-4.848,1781203502119
2094030552,3,2.214,8.715,-4.96995,1781203502130
2094030562,3,2.154,9.843,-3.9270003,1781203502140
2094030573,3,2.832,9.811951,-2.97405,1781203502149
2094030583,3,2.86995,8.887951,-3.8160002,1781203502158
2094030593,3,2.6520002,7.1640005,-5.5090504,1781203502169
2094030603,3,2.5900502,8.265,-6.0340505,1781203502179
2094030613,3,2.7529502,7.8940506,-5.682,1781203502189
2094030623,3,2.41995,8.478001,-5.8560004,1781203502199
2094030633,3,2.229,8.15295,-5.5020003,1781203502209
2094030643,3,2.28795,8.059051,-5.208,1781203502219
2094030653,3,2.2050002,8.1,-4.91505,1781203502229
2094030663,3,2.2480502,8.08605,-4.74795,1781203502239
2094030673,3,2.466,8.497951,-5.1070504,1781203502249
2094030683,3,2.7550502,8.4210005,-5.184,1781203502260
2094030693,3,3.25305,8.847,-5.0950503,1781203502270
2094030703,3,3.55995,8.967,-4.8460503,1781203502280
2094030714,3,2.97795,8.44305,-5.26305,1781203502289
2094030724,3,2.11095,7.7550006,-5.727,1781203502300
2094030734,3,2.14995,7.7869506,-5.5590005,1781203502310
2094030744,3,2.217,7.7119503,-5.2909503,1781203502320
2094030754,3,2.2069502,8.208,-5.3100004,1781203502330
2094030764,3,2.2020001,9.166051,-4.7910004,1781203502341
2094030774,3,2.53305,9.352051,-4.257,1781203502350
2094030784,3,2.5129502,8.586,-4.26405,1781203502360
2094030794,3,2.3389502,7.66695,-5.23605,1781203502370
2094030804,3,2.025,7.8580503,-5.1049504,1781203502381
2094030814,3,2.0730002,7.9830003,-4.7380505,1781203502390
2094030824,3,2.4540002,8.11905,-4.93905,1781203502401
2094030834,3,2.87505,8.067,-5.4160504,1781203502411
2094030845,3,3.2940001,7.9350004,-5.8300505,1781203502420
2094030855,3,3.1000502,7.7839503,-5.32695,1781203502430
2094030865,3,2.904,7.9129505,-5.181,1781203502441
2094030875,3,2.559,7.8370504,-5.2309504,1781203502451
2094030885,3,2.15895,8.056951,-5.0329504,1781203502461
2094030895,3,2.0629501,8.42595,-4.96605,1781203502472
2094030905,3,2.2450502,8.59095,-5.085,1781203502481
2094030915,3,2.48895,8.625,-5.2819505,1781203502491
2094030925,3,2.77395,8.397,-5.1000004,1781203502501
2094030935,3,2.9640002,8.380051,-4.7239504,1781203502512
2094030945,3,3.2290502,8.7300005,-5.32695,1781203502522
2094030955,3,3.39,8.67195,-6.2389503,1781203502532
2094030965,3,3.3589501,8.59305,-6.72795,1781203502541
2094030975,3,3.2770503,8.694,-6.7900505,1781203502561
2094030986,3,3.3589501,8.698951,-6.76905,1781203502563
2094030996,3,3.41595,8.73495,-6.543,1781203502572
2094031006,3,3.5670002,8.69205,-6.1410003,1781203502582
2094031016,3,3.7560003,8.514,-5.727,1781203502593
2094031026,3,3.72705,8.517,-6.1459503,1781203502603
2094031036,3,3.48795,8.60805,-6.52395,1781203502612
2094031046,3,2.73795,8.34405,-6.2320504,1781203502622
2094031056,3,2.5570502,8.268001,-5.65005,1781203502632
2094031066,3,2.9610002,8.466001,-5.3580003,1781203502645
2094031076,3,3.3229501,8.43105,-5.40105,1781203502654
2094031086,3,3.1960502,8.184,-5.5690503,1781203502664
2094031096,3,2.7910502,7.80105,-5.55495,1781203502674
2094031106,3,2.631,7.4490004,-5.571,1781203502684
2094031116,3,2.73405,7.425,-5.3299503,1781203502693
2094031127,3,2.8960502,7.6500006,-5.124,1781203502706
2094031137,3,2.97105,7.4659505,-5.08995,1781203502713
2094031147,3,3.04305,7.3219504,-5.08995,1781203502723
2094031157,3,3.3079503,7.4130006,-5.076,1781203502733
2094031167,3,3.3439503,7.1280003,-5.1450005,1781203502743
2094031177,3,2.8290002,6.8479505,-5.35395,1781203502753
2094031187,3,2.40105,7.15395,-5.5590005,1781203502764
2094031197,3,2.4799502,7.4029503,-5.4949503,1781203502774
2094031207,3,2.76495,7.6759505,-5.136,1781203502784
2094031217,3,3.07605,7.8439503,-4.6519504,1781203502794
2094031227,3,3.0930002,7.6399503,-4.27605,1781203502804
2094031237,3,3.141,7.6429505,-4.4029503,1781203502815
2094031247,3,3.2250001,8.00205,-5.01105,1781203502824
2094031258,3,3.0900002,8.17395,-5.4160504,1781203502834
2094031268,3,3.07095,8.60295,-5.346,1781203502844
2094031278,3,3.2440503,8.838,-5.0809503,1781203502854
2094031288,3,3.1620002,8.41905,-4.9630504,1781203502865
2094031298,3,3.0949502,8.257951,-5.0610003,1781203502874
2094031308,3,3.10695,8.517,-5.0929503,1781203502885
2094031318,3,3.354,8.64795,-5.30595,1781203502895
2094031328,3,3.5050502,8.694,-5.682,1781203502905
2094031338,3,3.4279501,8.581051,-5.7460504,1781203502915
2094031348,3,3.41595,8.538,-5.73705,1781203502924
2094031358,3,3.4420502,8.301001,-5.8710003,1781203502935
2094031368,3,3.6409502,8.28705,-5.6860504,1781203502945
2094031378,3,3.72495,8.33205,-5.81295,1781203502955
2094031388,3,3.4420502,8.65095,-5.703,1781203502965
2094031399,3,2.9950502,8.89305,-5.60295,1781203502975
2094031409,3,2.6520002,8.802,-5.38005,1781203502985
2094031419,3,2.3700001,8.509951,-5.16405,1781203502995
2094031429,3,2.391,8.365951,-5.23395,1781203503005
2094031439,3,2.5210502,8.136001,-5.7439504,1781203503015
2094031449,3,2.676,8.33205,-6.129,1781203503025
2094031459,3,2.667,8.359051,-5.892,1781203503035
2094031469,3,2.6500502,8.076,-5.4640503,1781203503046
2094031479,3,2.6209502,7.8630004,-5.0539503,1781203503056
2094031489,3,2.6260502,7.8370504,-4.92705,1781203503066
2094031499,3,2.6590502,7.7719502,-5.1670504,1781203503075
2094031509,3,2.7169502,7.7749505,-5.5480504,1781203503086
2094031519,3,2.9659503,7.7580004,-5.8900504,1781203503096
2094031530,3,3.0349503,7.83405,-5.6910005,1781203503106
2094031540,3,2.9680502,7.9249506,-5.3440504,1781203503116
2094031550,3,2.9950502,7.839,-5.004,1781203503126
2094031560,3,2.98305,7.9879503,-4.99695,1781203503137
2094031570,3,2.9299502,7.9900503,-5.169,1781203503146
2094031580,3,3.0859501,8.27295,-5.19105,1781203503157
2094031590,3,3.3919501,8.674951,-4.4940004,1781203503166
2094031600,3,3.3370502,8.809051,-3.6010501,1781203503177
2094031610,3,2.9299502,8.16195,-3.38805,1781203503186
2094031620,3,2.69805,7.01595,-4.09905,1781203503197
2094031630,3,2.98305,6.84105,-4.92,1781203503207
2094031640,3,3.21705,7.7869506,-5.3629503,1781203503217
2094031650,3,3.3079503,8.15505,-6.0379505,1781203503228
2094031660,3,3.246,8.268001,-6.2179503,1781203503236
2094031671,3,3.6000001,8.493,-6.261,1781203503247
2094031681,3,3.8470502,8.70405,-5.9929504,1781203503257
2094031691,3,3.6550503,8.182051,-5.2120504,1781203503267
2094031701,3,3.141,8.062051,-4.8679504,1781203503277
2094031711,3,2.97795,8.016001,-4.839,1781203503286
2094031721,3,2.8920002,8.224951,-5.1450005,1781203503298
2094031731,3,2.7600002,7.8630004,-5.36805,1781203503307
2094031741,3,3.14295,8.51895,-5.715,1781203503317
2094031751,3,3.3630002,9.196951,-5.5069504,1781203503327
2094031761,3,3.00195,8.9740505,-5.0160003,1781203503339
2094031771,3,2.5540502,8.562,-5.0059505,1781203503348
2094031781,3,2.403,8.215051,-5.1400504,1781203503358
2094031791,3,2.4780002,8.401951,-5.50395,1781203503368
2094031802,3,2.43705,8.352,-6.0670505,1781203503378
2094031812,3,2.40105,8.48595,-6.3760505,1781203503388
2094031822,3,2.53695,8.44995,-6.25605,1781203503398
2094031832,3,2.80305,8.13405,-5.7319503,1781203503408
2094031842,3,2.9950502,7.7650504,-5.313,1781203503418
2094031852,3,3.213,7.48995,-5.08995,1781203503428
2094031862,3,3.3919501,7.3890004,-5.22195,1781203503438
2094031872,3,3.45405,7.5259504,-5.55495,1781203503448
2094031882,3,3.3319502,7.5709505,-6.10305,1781203503458
2094031892,3,3.153,7.7149506,-6.6109505,1781203503468
2094031902,3,2.9299502,7.80105,-6.4429502,1781203503479
2094031912,3,2.9680502,7.7580004,-5.8350005,1781203503489
2094031922,3,3.0619502,7.971,-5.2390504,1781203503499
2094031932,3,2.976,8.212951,-4.9489503,1781203503509
2094031943,3,2.8270502,8.514,-4.54005,1781203503519
2094031953,3,2.904,8.689051,-4.39095,1781203503529
2094031963,3,3.2700002,8.44005,-4.57305,1781203503539
2094031973,3,3.38295,7.7460003,-5.181,1781203503550
2094031983,3,3.423,7.7310004,-5.6340003,1781203503559
2094031993,3,3.5020502,8.229,-5.5360503,1781203503570
2094032003,3,3.52605,8.377951,-5.01405,1781203503580
2094032013,3,3.6319501,8.404051,-4.39605,1781203503590
2094032023,3,3.6990001,8.004001,-3.9769502,1781203503601
2094032033,3,3.5760002,7.2769504,-4.4370003,1781203503609
2094032043,3,3.555,7.18305,-5.4229503,1781203503620
2094032053,3,3.5020502,7.5139503,-6.03105,1781203503630
2094032063,3,3.4999502,8.269951,-6.2200503,1781203503640
2094032074,3,3.387,8.851951,-5.4300003,1781203503650
2094032084,3,3.5760002,8.76105,-4.69005,1781203503660
2094032094,3,3.6649501,8.47395,-4.24305,1781203503671
2094032104,3,3.4279501,7.7770505,-4.2520504,1781203503681
2094032114,3,3.08295,7.6380005,-4.9560003,1781203503692
2094032124,3,3.08295,8.58405,-5.3299503,1781203503701
2094032134,3,2.7120001,9.181951,-5.3560505,1781203503710
2094032144,3,2.1760502,9.10305,-4.9900503,1781203503721
2094032154,3,2.0059502,8.61705,-4.9420505,1781203503730
2094032164,3,2.1660001,8.019,-5.14995,1781203503741
2094032174,3,2.7120001,8.16705,-5.5189505,1781203503751
2094032184,3,2.9970002,8.1,-5.8639503,1781203503761
2094032194,3,2.97795,8.028001,-6.1600504,1781203503771
2094032204,3,2.9299502,7.9470005,-6.0670505,1781203503781
2094032215,3,2.877,7.9999504,-5.5069504,1781203503791
2094032225,3,2.80605,7.9249506,-5.14995,1781203503801
2094032235,3,2.6860502,7.8490505,-5.181,1781203503811
2094032245,3,2.5210502,8.00205,-5.41305,1781203503821
2094032255,3,2.4870002,8.31795,-5.61495,1781203503832
2094032265,3,2.45805,8.292001,-5.7649503,1781203503842
2094032275,3,2.43,8.160001,-5.63805,1781203503852
2094032285,3,2.45595,8.569051,-5.313,1781203503862
2094032295,3,2.4510002,8.79195,-5.1720004,1781203503872
2094032305,3,2.5849502,8.514,-5.15205,1781203503882
2094032315,3,2.976,8.536051,-5.289,1781203503892
2094032325,3,3.627,8.866051,-4.81995,1781203503902
2094032335,3,3.9810002,9.1699505,-4.6210504,1781203503912
2094032346,3,3.3970501,8.15505,-4.4170504,1781203503922
2094032356,3,2.5450501,6.93195,-4.7910004,1781203503934
2094032366,3,2.4510002,7.32705,-5.11695,1781203503943
2094032376,3,2.8609502,8.44005,-5.2699504,1781203503952
