icm4n607_acc,iven_sense,2026-06-10_23-18-08.487_Active 10 Pro
imuTimestamp,accuracy(more=better),acc_x[m/s^2],acc_y[m/s^2],acc_z[m/s^2],utcTimestamp(millis)
2013220106,3,-0.80895007,3.4290001,9.33405,1781122691682
2013220116,3,-0.79395,3.4080002,9.31005,1781122691691
2013220126,3,-0.79200006,3.38595,9.250051,1781122691703
2013220136,3,-0.81405,3.39105,9.22395,1781122691713
2013220146,3,-0.82500005,3.4120502,9.196951,1781122691723
2013220156,3,-0.84195006,3.4510503,9.20505,1781122691733
2013220166,3,-0.81795,3.4699502,9.231001,1781122691743
2013220176,3,-0.79905003,3.4360502,9.25695,1781122691753
2013220186,3,-0.77805007,3.4000502,9.26895,1781122691763
2013220196,3,-0.79695004,3.38805,9.267,1781122691773
2013220206,3,-0.81405,3.38595,9.250051,1781122691782
2013220216,3,-0.83505005,3.3760502,9.24495,1781122691797
2013220226,3,-0.85200006,3.3960001,9.255,1781122691803
2013220236,3,-0.84705,3.42195,9.23295,1781122691812
2013220247,3,-0.85695004,3.4390502,9.255,1781122691822
2013220257,3,-0.88095003,3.4410002,9.291,1781122691833
2013220267,3,-0.90705,3.4390502,9.315001,1781122691843
2013220277,3,-0.924,3.417,9.331051,1781122691854
2013220287,3,-0.91605,3.3930001,9.324,1781122691863
2013220297,3,-0.90705,3.3760502,9.303,1781122691875
2013220307,3,-0.91200006,3.3739502,9.26895,1781122691884
2013220317,3,-0.897,3.3690002,9.250051,1781122691894
2013220327,3,-0.90000004,3.39105,9.25695,1781122691904
2013220337,3,-0.90195006,3.4000502,9.288,1781122691915
2013220347,3,-0.933,3.4000502,9.315001,1781122691924
2013220357,3,-0.933,3.3979502,9.35805,1781122691934
2013220367,3,-0.924,3.4080002,9.36495,1781122691943
2013220377,3,-0.93105006,3.4000502,9.327001,1781122691954
2013220388,3,-0.90705,3.4120502,9.26895,1781122691965
2013220398,3,-0.90000004,3.4150503,9.231001,1781122691978
2013220408,3,-0.90900004,3.4339502,9.247951,1781122691985
2013220418,3,-0.90900004,3.4000502,9.292951,1781122691995
2013220428,3,-0.90900004,3.3690002,9.327001,1781122692005
2013220438,3,-0.90195006,3.34995,9.327001,1781122692015
2013220448,3,-0.87600005,3.3289502,9.304951,1781122692025
2013220458,3,-0.87795,3.3450003,9.259951,1781122692035
2013220468,3,-0.8880001,3.348,9.264001,1781122692045
2013220478,3,-0.86895007,3.3360002,9.255,1781122692056
2013220488,3,-0.89295006,3.31395,9.271951,1781122692065
2013220498,3,-0.87600005,3.3090003,9.279,1781122692077
2013220508,3,-0.89505005,3.31695,9.31005,1781122692087
2013220519,3,-0.88500005,3.3070502,9.304951,1781122692096
2013220529,3,-0.88095003,3.3070502,9.3,1781122692107
2013220539,3,-0.88305,3.3259501,9.264001,1781122692116
2013220549,3,-0.87795,3.3330002,9.23295,1781122692127
2013220559,3,-0.873,3.3640501,9.20205,1781122692137
2013220569,3,-0.87795,3.4000502,9.19995,1781122692147
2013220579,3,-0.87600005,3.38595,9.22605,1781122692156
2013220589,3,-0.87795,3.38595,9.295951,1781122692167
2013220599,3,-0.88500005,3.38595,9.31005,1781122692176
2013220609,3,-0.90195006,3.3930001,9.32205,1781122692187
2013220619,3,-0.91395,3.3760502,9.360001,1781122692197
2013220629,3,-0.92805004,3.3670502,9.387,1781122692207
2013220639,3,-0.91905004,3.357,9.36495,1781122692217
2013220649,3,-0.92100006,3.35205,9.34605,1781122692226
2013220660,3,-0.92100006,3.348,9.351001,1781122692237
2013220670,3,-0.94305,3.34995,9.360001,1781122692247
2013220680,3,-0.96000004,3.3600001,9.348001,1781122692258
2013220690,3,-0.957,3.3790503,9.35505,1781122692268
2013220700,3,-0.93600005,3.381,9.372001,1781122692278
2013220710,3,-0.91200006,3.34995,9.384001,1781122692288
2013220720,3,-0.88500005,3.3360002,9.396001,1781122692299
2013220730,3,-0.86595005,3.3409503,9.394051,1781122692309
2013220740,3,-0.87105006,3.31395,9.387,1781122692319
2013220750,3,-0.87105006,3.3070502,9.360001,1781122692329
2013220760,3,-0.88500005,3.3000002,9.33405,1781122692339
2013220770,3,-0.88500005,3.3070502,9.30795,1781122692349
2013220780,3,-0.87105006,3.3049502,9.280951,1781122692359
2013220791,3,-0.86100006,3.3310502,9.255,1781122692369
2013220801,3,-0.86895007,3.3690002,9.23295,1781122692379
2013220811,3,-0.88305,3.3760502,9.20205,1781122692389
2013220821,3,-0.88995004,3.348,9.17595,1781122692399
2013220831,3,-0.89505005,3.3240001,9.17595,1781122692409
2013220841,3,-0.88095003,3.2929502,9.17805,1781122692419
2013220851,3,-0.88095003,3.27795,9.15705,1781122692429
2013220861,3,-0.86595005,3.288,9.160951,1781122692438
2013220871,3,-0.873,3.2929502,9.097051,1781122692449
2013220881,3,-0.86895007,3.3049502,9.007951,1781122692458
2013220891,3,-0.85200006,3.3090003,8.920051,1781122692469
2013220901,3,-0.83505005,3.3000002,8.842951,1781122692479
2013220911,3,-0.79200006,3.2970002,8.72805,1781122692489
2013220921,3,-0.76095,3.3120003,8.623051,1781122692499
2013220932,3,-0.74205005,3.35505,8.472,1781122692509
2013220942,3,-0.70605004,3.3979502,8.34,1781122692518
2013220952,3,-0.70605004,3.4309502,8.20905,1781122692529
2013220962,3,-0.648,3.48705,8.08905,1781122692539
2013220972,3,-0.555,3.5320501,8.002951,1781122692548
2013220982,3,-0.41805002,3.5419502,7.9260006,1781122692560
2013220992,3,-0.24105,3.6400502,7.8490505,1781122692569
2013221002,3,-0.093,3.7549503,7.76805,1781122692580
2013221012,3,-0.028050002,3.8460002,7.7820005,1781122692590
2013221022,3,-0.0139500005,3.72795,7.8610506,1781122692601
2013221032,3,-0.102000006,3.5779502,7.9879503,1781122692610
2013221042,3,-0.27195,3.39105,8.175,1781122692620
2013221052,3,-0.58095,3.147,8.496,1781122692630
2013221063,3,-1.04595,3.01005,8.805,1781122692640
2013221073,3,-1.4929501,3.3289502,9.18105,1781122692650
2013221083,3,-1.8379501,3.522,9.769951,1781122692660
2013221093,3,-2.04405,3.4290001,10.45695,1781122692671
2013221103,3,-2.19,3.1320002,10.61505,1781122692681
2013221113,3,-2.32695,2.907,10.549951,1781122692691
2013221123,3,-2.49705,2.77305,10.61205,1781122692701
2013221133,3,-2.7580502,2.673,10.9789505,1781122692711
2013221143,3,-3.07395,2.6560502,11.491051,1781122692721
2013221153,3,-3.3630002,2.59395,12.1039505,1781122692731
2013221163,3,-3.6100502,2.7559502,12.339001,1781122692741
2013221173,3,-3.8089502,2.7250502,12.56595,1781122692751
2013221183,3,-4.0150504,2.6839502,12.961051,1781122692761
2013221193,3,-4.1130004,2.505,13.64595,1781122692772
2013221204,3,-4.19205,2.94105,13.81305,1781122692782
2013221214,3,-4.26405,3.5419502,13.840051,1781122692792
2013221224,3,-4.29705,4.056,13.63395,1781122692802
2013221234,3,-4.17495,4.3770003,12.8560505,1781122692811
2013221244,3,-4.35195,4.629,11.979001,1781122692822
2013221254,3,-4.1340003,4.1950502,11.886001,1781122692832
2013221264,3,-4.1509504,4.1470504,11.509951,1781122692842
2013221274,3,-4.5870004,3.8719501,10.83495,1781122692852
2013221284,3,-4.584,3.9510002,10.561951,1781122692862
2013221294,3,-4.42395,4.011,10.143001,1781122692872
2013221304,3,-4.13205,3.9610503,10.011001,1781122692882
2013221314,3,-3.801,3.9580503,9.78195,1781122692892
2013221324,3,-3.519,3.93705,9.42195,1781122692902
2013221334,3,-3.25605,3.96495,9.292951,1781122692912
2013221345,3,-3.2010002,3.9940503,9.15705,1781122692923
2013221355,3,-3.1000502,3.9180002,8.920051,1781122692933
2013221365,3,-3.0570002,4.0279503,8.69205,1781122692942
2013221375,3,-3.1600502,4.1520004,8.27595,1781122692953
2013221385,3,-3.2359502,4.28595,7.66305,1781122692963
2013221395,3,-3.1330502,4.293,7.143,1781122692973
2013221405,3,-2.90595,4.23105,6.8890505,1781122692982
2013221450,3,-2.4769502,3.62505,6.0990005,1781122693027
2013221460,3,-2.4820502,3.7450502,5.9599504,1781122693037
2013221470,3,-2.4420002,3.89595,5.8120503,1781122693047
2013221481,3,-2.331,3.8860502,5.5339503,1781122693057
2013221491,3,-2.1019502,3.72795,5.1660004,1781122693066
2013221501,3,-1.9099501,3.4339502,4.689,1781122693078
2013221511,3,-1.7380501,3.1420503,4.32495,1781122693088
2013221521,3,-1.52505,2.811,4.2340503,1781122693098
2013221531,3,-1.4500501,2.5789502,4.05195,1781122693108
2013221541,3,-1.434,2.598,4.02405,1781122693118
2013221551,3,-1.3980001,2.565,3.9469502,1781122693129
2013221561,3,-1.3789501,2.42595,3.5710502,1781122693138
2013221571,3,-1.3549501,2.4469502,3.1900501,1781122693148
2013221581,3,-1.36695,2.50005,2.6440501,1781122693157
2013221591,3,-1.314,2.4760501,2.35695,1781122693167
2013221601,3,-1.3039501,2.3730001,2.8860002,1781122693177
2013221612,3,-1.3399501,2.8159502,6.195,1781122693189
2013221622,3,-0.54795,2.352,1.95,1781122693197
2013221632,3,0.57405,1.7530501,-2.28195,1781122693209
2013221642,3,1.30005,1.1209501,7.25295,1781122693217
2013221652,3,0.59295005,2.112,13.897051,1781122693228
2013221662,3,1.1920501,1.03005,7.69605,1781122693237
2013221672,3,0.16995001,0.91800004,8.23305,1781122693248
2013221682,3,-0.47595003,1.7580001,11.031,1781122693257
2013221692,3,-0.34395,2.529,12.918,1781122693270
2013221702,3,0.21000001,3.20895,14.448001,1781122693279
2013221712,3,0.67200005,3.6210003,15.38895,1781122693290
2013221722,3,1.0699501,3.4630501,14.529,1781122693299
2013221732,3,1.2970501,3.2299502,12.726001,1781122693308
2013221742,3,1.2420001,3.051,12.280951,1781122693319
2013221753,3,1.005,2.96895,12.83895,1781122693330
2013221763,3,0.78195006,3.21405,13.629001,1781122693340
2013221773,3,0.60495,3.5419502,14.14605,1781122693350
2013221783,3,0.47595003,3.558,14.517001,1781122693358
2013221793,3,0.51705,3.4339502,14.307001,1781122693369
2013221803,3,0.47400004,3.00495,13.789051,1781122693380
2013221813,3,0.36105,2.4499502,13.35105,1781122693390
2013221823,3,0.25095,1.96905,13.210051,1781122693400
2013221833,3,0.27,1.75995,13.00695,1781122693410
2013221843,3,0.39705002,1.6669501,12.4800005,1781122693419
2013221853,3,0.507,1.8030001,11.962951,1781122693430
2013221863,3,0.54300004,2.112,11.92695,1781122693440
2013221873,3,0.61995006,2.1049502,11.505,1781122693451
2013221884,3,0.71805006,2.13105,11.0119505,1781122693461
2013221894,3,0.90000004,2.38995,10.78995,1781122693470
2013221904,3,0.98100007,2.29395,10.47105,1781122693480
2013221914,3,0.86895007,2.26095,10.026,1781122693490
2013221924,3,0.69900006,2.22705,9.64305,1781122693500
2013221934,3,0.28905,2.091,9.36705,1781122693511
2013221944,3,-0.081,1.899,9.00105,1781122693522
2013221954,3,-0.49305,1.7530501,8.766001,1781122693530
2013221964,3,-0.82095003,1.6360501,8.87205,1781122693541
2013221974,3,-1.05795,1.5469501,8.802,1781122693551
2013221984,3,-1.21305,1.5520501,8.809951,1781122693560
2013221994,3,-1.2280501,1.50705,9.03195,1781122693571
2013222004,3,-1.1080501,1.48695,9.115951,1781122693582
2013222014,3,-0.99105006,1.4989501,9.135,1781122693590
2013222025,3,-0.87795,1.5280501,9.121051,1781122693602
2013222035,3,-0.82500005,1.62405,9.184951,1781122693612
2013222045,3,-0.75405,1.7340001,9.444,1781122693622
2013222055,3,-0.60300004,1.8250501,9.44205,1781122693632
2013222065,3,-0.40695003,1.863,9.207001,1781122693642
2013222075,3,-0.19800001,1.9380001,9.09405,1781122693652
2013222085,3,0.025950002,1.96395,9.267,1781122693662
2013222095,3,0.15300001,1.9879501,9.43395,1781122693672
2013222105,3,0.22695,2.0310001,9.40305,1781122693682
2013222115,3,0.20295002,2.184,9.250051,1781122693695
2013222125,3,0.102000006,2.4450002,9.217051,1781122693703
2013222135,3,0.034950003,2.7970502,9.0060005,1781122693713
2013222145,3,0.031050002,3.1300502,8.6970005,1781122693722
2013222155,3,0.08595,3.4309502,8.54895,1781122693733
2013222166,3,-0.117000006,3.6540003,8.48595,1781122693742
2013222176,3,-0.21705002,3.7549503,8.335051,1781122693753
2013222186,3,-0.44505003,3.8550003,8.479051,1781122693763
2013222196,3,-0.684,3.831,8.853001,1781122693772
2013222206,3,-0.81795,3.7810502,9.115951,1781122693781
2013222216,3,-0.92595005,3.8050501,9.39105,1781122693793
2013222226,3,-1.0530001,3.7360501,9.727051,1781122693803
2013222236,3,-1.194,3.8530502,9.937051,1781122693813
2013222246,3,-1.3950001,3.8389502,10.00905,1781122693824
2013222256,3,-1.6510501,3.6400502,10.126051,1781122693834
2013222266,3,-1.9099501,3.6400502,10.320001,1781122693844
2013222276,3,-2.1090002,3.6850502,10.396951,1781122693854
2013222286,3,-2.18805,3.6660001,10.2960005,1781122693864
2013222297,3,-2.2090502,3.8389502,10.12905,1781122693874
2013222307,3,-2.121,3.9889503,9.94005,1781122693884
2013222317,3,-1.848,3.85995,9.67905,1781122693894
2013222327,3,-1.74195,4.22205,9.444,1781122693904
2013222337,3,-1.5370501,4.5090003,9.219001,1781122693914
2013222347,3,-1.44105,4.755,9.09405,1781122693924
2013222357,3,-1.2760501,4.782,9.115951,1781122693934
2013222367,3,-1.1389501,4.6480503,9.229051,1781122693945
2013222377,3,-1.0720501,4.4830503,9.38895,1781122693954
2013222387,3,-1.0510501,4.31295,9.525001,1781122693963
2013222397,3,-0.984,4.1670003,9.67605,1781122693974
2013222407,3,-0.90000004,4.05195,9.760051,1781122693983
2013222417,3,-0.80205005,3.8839502,9.786,1781122693995
2013222427,3,-0.72,3.8220003,9.82005,1781122694005
2013222438,3,-0.60300004,3.6109502,9.738001,1781122694015
2013222448,3,-0.531,3.6709502,9.592051,1781122694023
2013222458,3,-0.43005002,3.7039502,9.540001,1781122694035
2013222468,3,-0.30405003,3.7830002,9.384001,1781122694045
2013222478,3,-0.17205001,3.7999501,9.20505,1781122694055
2013222488,3,-0.00405,3.7690501,9.09195,1781122694065
2013222498,3,0.14595,3.6660001,8.92395,1781122694075
2013222508,3,0.28905,3.5700002,8.67105,1781122694086
2013222518,3,0.35595003,3.5460002,8.493,1781122694095
2013222528,3,0.43800002,3.4960501,8.17305,1781122694104
2013222538,3,0.44505003,3.4339502,7.8970504,1781122694115
2013222548,3,0.423,3.38595,7.7440505,1781122694124
2013222558,3,0.31305,3.3930001,7.6770005,1781122694136
2013222569,3,0.165,3.4309502,7.7080503,1781122694144
2013222579,3,-0.043050002,3.5490003,7.7749505,1781122694156
2013222589,3,-0.33705002,3.6799502,7.9020004,1781122694164
2013222599,3,-0.67695004,3.7710001,8.05095,1781122694176
2013222609,3,-1.0339501,3.8550003,8.26395,1781122694186
2013222619,3,-1.3260001,3.97305,8.488951,1781122694198
2013222629,3,-1.575,4.116,8.625,1781122694207
2013222639,3,-1.7500501,4.31505,8.68995,1781122694214
2013222649,3,-1.86705,4.5040503,8.6970005,1781122694226
2013222659,3,-1.9030501,4.6909504,8.742001,1781122694237
2013222669,3,-1.9200001,4.84905,8.754001,1781122694247
2013222679,3,-1.8960001,5.00895,8.71395,1781122694258
2013222689,3,-1.8930001,5.1940503,8.72295,1781122694266
2013222699,3,-1.8550501,5.36805,8.75205,1781122694276
2013222710,3,-1.7710501,5.50995,8.75895,1781122694286
2013222720,3,-1.6180501,5.6599503,8.838,1781122694296
2013222730,3,-1.4100001,5.80695,8.95995,1781122694305
2013222740,3,-1.1869501,5.92605,9.07005,1781122694315
2013222750,3,-0.957,6.0030003,9.20505,1781122694328
2013222760,3,-0.77805007,6.07695,9.36705,1781122694336
2013222770,3,-0.63600004,6.07905,9.537001,1781122694346
2013222780,3,-0.55695003,5.9809504,9.765,1781122694358
2013222790,3,-0.55995005,5.83995,10.119,1781122694367
2013222800,3,-0.61995006,5.7180004,10.533001,1781122694378
2013222810,3,-0.73200005,5.565,10.95495,1781122694388
2013222820,3,-0.82995003,5.33505,11.448001,1781122694398
2013222830,3,-0.88995004,4.9090505,11.79705,1781122694408
2013222841,3,-0.97200006,4.4160004,12.02505,1781122694418
2013222851,3,-1.0860001,3.97305,12.196951,1781122694428
2013222861,3,-1.1700001,3.5680501,12.288,1781122694438
2013222871,3,-1.2040501,3.288,12.20205,1781122694448
2013222881,3,-1.1580001,3.0990002,12.042001,1781122694458
2013222891,3,-1.09095,2.9910002,11.802001,1781122694468
2013222901,3,-1.0189501,2.90505,11.529,1781122694478
2013222911,3,-0.98595005,2.7970502,11.326051,1781122694489
2013222921,3,-1.04595,2.63895,11.206051,1781122694498
2013222931,3,-1.2090001,2.43105,10.960051,1781122694509
2013222941,3,-1.4070001,2.18895,10.521001,1781122694518
2013222951,3,-1.5370501,1.9780501,9.937051,1781122694528
2013222961,3,-1.5870001,1.8229501,9.303,1781122694539
2013222971,3,-1.52505,1.72695,8.665951,1781122694548
2013222982,3,-1.3980001,1.7080501,8.12205,1781122694558
2013222992,3,-1.25205,1.7560501,7.7749505,1781122694569
2013223002,3,-1.074,1.8390001,7.5259504,1781122694577
2013223012,3,-0.93600005,1.914,7.3830004,1781122694588
2013223022,3,-0.84900004,1.9849501,7.287,1781122694599
2013223032,3,-0.79695004,2.01195,7.2510004,1781122694609
2013223042,3,-0.76995003,1.9879501,7.29405,1781122694619
2013223052,3,-0.78495,1.9420501,7.4089503,1781122694629
2013223062,3,-0.85395,1.8370501,7.54995,1781122694639
2013223072,3,-0.98100007,1.7170501,7.7539506,1781122694650
2013223082,3,-1.1179501,1.6210501,7.866,1781122694659
2013223092,3,-1.28805,1.5660001,7.8949504,1781122694670
2013223102,3,-1.43595,1.60695,7.9840503,1781122694680
2013223112,3,-1.55295,1.6789501,8.0119505,1781122694690
2013223123,3,-1.6800001,1.8510001,7.9930506,1781122694700
2013223133,3,-1.7950501,2.00895,7.998,1781122694710
2013223143,3,-1.8649501,2.232,8.019,1781122694720
2013223153,3,-1.9120501,2.5240502,7.9860005,1781122694730
2013223163,3,-1.98705,2.871,7.9840503,1781122694738
2013223173,3,-2.025,3.25005,8.031,1781122694748
2013223183,3,-1.98705,3.5850003,8.125051,1781122694759
2013223193,3,-1.9240501,3.8940003,8.23305,1781122694770
2013223203,3,-1.83105,4.18095,8.41905,1781122694778
2013223213,3,-1.76205,4.42695,8.55795,1781122694789
2013223223,3,-1.6990501,4.6090503,8.70405,1781122694800
2013223233,3,-1.695,4.71495,8.862,1781122694811
2013223243,3,-1.71405,4.81995,9.0060005,1781122694821
2013223254,3,-1.764,4.9180503,9.015,1781122694831
2013223264,3,-1.82895,5.0160003,9.135,1781122694841
2013223274,3,-1.8409501,5.0500503,9.21195,1781122694849
2013223284,3,-1.8529501,5.004,9.35505,1781122694861
2013223294,3,-1.8240001,4.9020004,9.489,1781122694871
2013223304,3,-1.7710501,4.80795,9.693001,1781122694881
2013223314,3,-1.695,4.65,9.813001,1781122694891
2013223324,3,-1.6200001,4.5160503,9.873,1781122694901
2013223334,3,-1.5510001,4.413,9.9199505,1781122694911
2013223344,3,-1.4460001,4.32705,9.89595,1781122694921
2013223354,3,-1.3549501,4.188,9.870001,1781122694932
2013223364,3,-1.21305,4.05405,9.84105,1781122694942
2013223374,3,-1.0720501,3.96495,9.814951,1781122694952
2013223384,3,-0.94305,3.8940003,9.82005,1781122694961
2013223395,3,-0.86100006,3.8389502,9.786,1781122694970
2013223405,3,-0.75600004,3.7450502,9.760051,1781122694982
2013223415,3,-0.66705,3.6349502,9.705001,1781122694992
2013223425,3,-0.55995005,3.4990501,9.624001,1781122695002
2013223435,3,-0.49305,3.357,9.559051,1781122695012
2013223445,3,-0.402,3.2329502,9.456,1781122695022
2013223455,3,-0.33195,3.1300502,9.291,1781122695032
2013223465,3,-0.29205,3.04395,9.21405,1781122695042
2013223475,3,-0.23895001,2.9650502,9.135,1781122695053
2013223485,3,-0.17205001,2.8860002,9.04905,1781122695062
2013223495,3,-0.076050006,2.84295,9.01095,1781122695072
2013223505,3,0.040050004,2.80905,8.962951,1781122695083
2013223515,3,0.12900001,2.7900002,8.91495,1781122695093
2013223526,3,0.21300001,2.775,8.944051,1781122695103
2013223536,3,0.29205,2.77305,9.03195,1781122695113
2013223546,3,0.36795002,2.7610502,9.184951,1781122695123
2013223556,3,0.39495003,2.8660502,9.37905,1781122695133
2013223566,3,0.43305,2.87595,9.444,1781122695143
2013223576,3,0.39495003,2.9599502,9.645,1781122695153
2013223586,3,0.36795002,3.1200001,9.66195,1781122695163
2013223596,3,0.38700002,3.28095,9.757951,1781122695173
2013223606,3,0.342,3.3760502,10.023001,1781122695183
2013223616,3,0.23400001,3.4789503,10.359,1781122695193
2013223626,3,0.08595,3.558,10.797001,1781122695202
2013223636,3,-0.105000004,3.6660001,11.203951,1781122695214
2013223646,3,-0.35595003,3.7240503,11.532001,1781122695225
2013223656,3,-0.63900006,3.7500002,11.745001,1781122695233
2013223667,3,-0.87600005,3.7020001,11.814,1781122695244
2013223677,3,-1.09605,3.657,11.71605,1781122695254
2013223687,3,-1.21305,3.6330001,11.629951,1781122695263
2013223697,3,-1.2900001,3.6349502,11.469001,1781122695274
2013223707,3,-1.3590001,3.66105,11.328,1781122695284
2013223717,3,-1.4100001,3.65895,11.179951,1781122695295
2013223727,3,-1.48905,3.594,10.938001,1781122695303
2013223737,3,-1.5649501,3.4819503,10.60995,1781122695315
2013223747,3,-1.5990001,3.3310502,10.2960005,1781122695325
2013223757,3,-1.5840001,3.1230001,9.861,1781122695334
2013223767,3,-1.5079501,2.9290502,9.439051,1781122695343
2013223777,3,-1.419,2.73195,9.03495,1781122695354
2013223787,3,-1.3399501,2.5189502,8.685,1781122695365
2013223798,3,-1.24905,2.33505,8.332951,1781122695375
2013223808,3,-1.1920501,2.1769502,8.13405,1781122695385
2013223818,3,-1.1370001,2.0329502,7.96395,1781122695395
2013223828,3,-1.1080501,1.8940501,7.8300004,1781122695405
2013223838,3,-1.10595,1.8180001,7.76805,1781122695415
2013223848,3,-1.113,1.7839501,7.7470503,1781122695425
2013223858,3,-1.149,1.779,7.7440505,1781122695435
2013223868,3,-1.1580001,1.779,7.7200503,1781122695445
2013223878,3,-1.113,1.8060001,7.7149506,1781122695455
2013223888,3,-1.0339501,1.91805,7.7730002,1781122695466
2013223898,3,-0.94500005,2.08605,7.8300004,1781122695476
2013223908,3,-0.873,2.3470502,7.9090505,1781122695485
2013223918,3,-0.82995003,2.6749501,7.9960504,1781122695496
2013223928,3,-0.80895007,3.0199502,8.059951,1781122695506
2013223939,3,-0.80205005,3.3310502,8.12205,1781122695516
2013223949,3,-0.82305,3.6370502,8.199,1781122695525
2013223959,3,-0.85905004,3.93195,8.328,1781122695537
2013223969,3,-0.87105006,4.1860504,8.467051,1781122695546
2013223979,3,-0.85905004,4.39905,8.613001,1781122695559
2013223989,3,-0.82095003,4.53795,8.773951,1781122695566
2013223999,3,-0.74895006,4.6330504,8.89605,1781122695584
2013224009,3,-0.66495,4.74795,9.0060005,1781122695586
2013224019,3,-0.53295004,4.7910004,9.109051,1781122695595
2013224029,3,-0.47595003,4.7959504,9.17595,1781122695606
2013224039,3,-0.41595003,4.80105,9.21405,1781122695617
2013224049,3,-0.35895002,4.767,9.19005,1781122695627
2013224059,3,-0.29895002,4.72695,9.20505,1781122695637
2013224069,3,-0.23400001,4.6140003,9.150001,1781122695645
2013224080,3,-0.16005,4.48005,9.085051,1781122695655
2013224090,3,-0.076050006,4.3170004,9.09405,1781122695667
2013224100,3,-0.021000002,4.1329503,9.03705,1781122695677
2013224110,3,-0.0019500001,3.9409502,9.019951,1781122695687
2013224120,3,0.033,3.7759502,9.02505,1781122695698
2013224130,3,0.07395,3.62505,9.03495,1781122695707
2013224140,3,0.094950005,3.4750502,9.066,1781122695718
2013224150,3,0.13605,3.348,9.075001,1781122695728
2013224160,3,0.13605,3.2620502,9.099,1781122695738
2013224170,3,0.13800001,3.252,9.09195,1781122695748
2013224180,3,0.16995001,3.2730002,9.075001,1781122695758
2013224190,3,0.18900001,3.3360002,9.102,1781122695768
2013224200,3,0.19800001,3.417,9.150001,1781122695777
2013224211,3,0.22005,3.522,9.196951,1781122695788
2013224221,3,0.21705002,3.6330001,9.20895,1781122695797
2013224231,3,0.18405001,3.7189503,9.279,1781122695808
2013224241,3,0.19800001,3.8170502,9.298051,1781122695818
2013224251,3,0.23205002,3.9270003,9.262051,1781122695827
2013224261,3,0.27705002,4.02,9.276,1781122695840
2013224271,3,0.31995,4.1740503,9.316951,1781122695849
2013224281,3,0.351,4.2840004,9.360001,1781122695859
2013224291,3,0.39900002,4.36305,9.40995,1781122695867
2013224301,3,0.38505003,4.41795,9.457951,1781122695879
2013224311,3,0.36795002,4.4490004,9.468,1781122695889
2013224321,3,0.35595003,4.4749503,9.475051,1781122695898
2013224331,3,0.32505003,4.5280504,9.53295,1781122695907
2013224341,3,0.28905,4.58295,9.5130005,1781122695919
2013224352,3,0.294,4.662,9.460951,1781122695927
2013224362,3,0.37995002,4.7910004,9.469951,1781122695937
2013224372,3,0.43995002,4.96395,9.525001,1781122695949
2013224382,3,0.45405003,5.0670004,9.753,1781122695961
2013224392,3,0.35895002,5.02395,10.203,1781122695969
2013224402,3,0.126,4.93695,10.773001,1781122695979
2013224412,3,-0.13095,4.734,11.182051,1781122695989
2013224422,3,-0.402,4.4710503,11.44305,1781122696000
2013224432,3,-0.67905,4.12305,11.65095,1781122696010
2013224442,3,-0.83295006,3.7879503,11.698951,1781122696020
2013224452,3,-0.86595005,3.5059502,11.698951,1781122696030
2013224462,3,-0.81795,3.3120003,11.565001,1781122696040
2013224472,3,-0.72300005,3.2280002,11.362051,1781122696050
2013224483,3,-0.57195,3.18705,11.127001,1781122696060
2013224493,3,-0.43800002,3.1320002,10.81095,1781122696070
2013224503,3,-0.32505003,3.04605,10.392,1781122696080
2013224513,3,-0.19605,3.0030003,9.925051,1781122696090
2013224523,3,-0.11895001,3.015,9.372001,1781122696100
2013224533,3,0.022950001,2.84505,8.853001,1781122696110
2013224543,3,0.079050004,2.8230002,8.38095,1781122696120
2013224553,3,0.15795001,2.84295,8.043,1781122696130
2013224563,3,0.19305001,2.8519502,7.7869506,1781122696140
2013224573,3,0.20295002,2.8230002,7.72695,1781122696150
2013224583,3,0.177,2.7540002,7.7179503,1781122696161
2013224593,3,0.10005,2.6560502,7.7509503,1781122696170
2013224603,3,0.016050002,2.62905,7.8450003,1781122696181
2013224613,3,-0.08595,2.5840502,7.998,1781122696191
2013224624,3,-0.21000001,2.53095,8.16495,1781122696201
2013224634,3,-0.37995002,2.4790502,8.412001,1781122696209
2013224644,3,-0.52395004,2.4090002,8.616,1781122696221
2013224654,3,-0.66,2.364,8.818951,1781122696230
2013224664,3,-0.81600004,2.32305,8.965051,1781122696240
2013224674,3,-0.933,2.3059502,8.986951,1781122696250
2013224684,3,-1.029,2.3419502,8.944051,1781122696261
2013224694,3,-1.0669501,2.42595,8.800051,1781122696271
2013224704,3,-1.1149501,2.5860002,8.592,1781122696282
2013224714,3,-1.074,2.8210502,8.46,1781122696290
2013224724,3,-1.04805,3.11805,8.314051,1781122696300
2013224734,3,-1.005,3.3790503,8.191951,1781122696310
2013224744,3,-0.99495006,3.6730502,8.09595,1781122696322
2013224755,3,-0.99495006,3.9799502,7.9879503,1781122696331
2013224765,3,-1.0360501,4.30095,7.8349504,1781122696342
2013224775,3,-1.0669501,4.6210504,7.7800503,1781122696352
2013224785,3,-1.13205,4.9350004,7.7029505,1781122696362
2013224795,3,-1.194,5.21295,7.6870503,1781122696371
2013224805,3,-1.24905,5.47095,7.76805,1781122696382
2013224815,3,-1.302,5.65605,7.8970504,1781122696392
2013224825,3,-1.36395,5.75895,8.14605,1781122696402
2013224835,3,-1.5010501,5.7780004,8.476951,1781122696412
2013224845,3,-1.6800001,5.6800504,8.809951,1781122696423
2013224855,3,-1.8859501,5.5410004,9.121051,1781122696431
2013224865,3,-2.04405,5.3640003,9.348001,1781122696443
2013224875,3,-2.118,5.1979504,9.53505,1781122696453
2013224885,3,-2.094,5.0929503,9.66705,1781122696461
2013224896,3,-1.9939501,4.99305,9.71205,1781122696473
2013224906,3,-1.79805,4.92495,9.637951,1781122696483
2013224916,3,-1.5679501,4.8439503,9.493951,1781122696493
2013224926,3,-1.3090501,4.767,9.298051,1781122696502
2013224936,3,-1.0720501,4.70505,9.1060505,1781122696513
2013224946,3,-0.86100006,4.64505,8.920051,1781122696521
2013224956,3,-0.65295005,4.5540004,8.742001,1781122696533
2013224966,3,-0.44700003,4.43205,8.601001,1781122696543
2013224976,3,-0.27705002,4.31295,8.476951,1781122696554
2013224986,3,-0.124050006,4.16895,8.331,1781122696562
2013224996,3,0.040050004,4.0230002,8.25405,1781122696574
2013225006,3,0.23700002,3.9130502,8.307,1781122696583
2013225016,3,0.39495003,3.8070002,8.38305,1781122696594
2013225026,3,0.50505,3.6780002,8.496,1781122696604
2013225037,3,0.55695003,3.5800502,8.60805,1781122696614
2013225047,3,0.61695004,3.45795,8.6970005,1781122696622
2013225057,3,0.64605004,3.39105,8.802,1781122696633
2013225067,3,0.67200005,3.4120502,8.958,1781122696644
2013225077,3,0.708,3.4789503,9.054001,1781122696654
2013225087,3,0.75600004,3.55395,9.22095,1781122696664
2013225097,3,0.77805007,3.6180003,9.36495,1781122696674
2013225107,3,0.81105006,3.7140002,9.589951,1781122696685
2013225117,3,0.804,3.8890502,9.813001,1781122696693
2013225127,3,0.837,4.11105,9.99705,1781122696704
2013225137,3,0.837,4.38,10.134001,1781122696715
2013225147,3,0.85905004,4.61205,10.083,1781122696725
2013225157,3,0.957,4.8970504,10.078051,1781122696735
2013225168,3,1.0669501,5.1649504,10.15995,1781122696745
2013225178,3,1.05495,5.34705,10.429951,1781122696755
2013225188,3,0.87105006,5.4229503,10.76595,1781122696765
2013225198,3,0.55695003,5.39505,11.14395,1781122696775
2013225208,3,0.21300001,5.2870502,11.541,1781122696785
2013225218,3,-0.19305001,5.0740504,11.845051,1781122696795
2013225228,3,-0.54495,4.80795,11.953051,1781122696804
2013225238,3,-0.80895007,4.63605,11.89305,1781122696815
2013225248,3,-0.95205003,4.45905,11.704051,1781122696826
2013225258,3,-1.00995,4.30095,11.500951,1781122696835
2013225268,3,-1.04295,4.17105,11.24205,1781122696846
2013225278,3,-1.09395,4.0080004,11.014951,1781122696856
2013225288,3,-1.161,3.8500502,10.746,1781122696864
2013225298,3,-1.194,3.6799502,10.390051,1781122696876
2013225309,3,-1.24695,3.4770002,9.966001,1781122696886
2013225319,3,-1.218,3.25395,9.4800005,1781122696896
2013225329,3,-1.12695,3.0649502,8.953051,1781122696906
2013225339,3,-1.02405,2.8900502,8.448,1781122696916
2013225349,3,-0.93105006,2.7469501,8.017051,1781122696926
2013225359,3,-0.84000003,2.60295,7.6720505,1781122696936
2013225369,3,-0.75600004,2.46705,7.4230504,1781122696946
2013225379,3,-0.74595004,2.36805,7.2370505,1781122696956
2013225389,3,-0.73005,2.32305,7.0980005,1781122696967
2013225399,3,-0.72,2.3370001,6.9760504,1781122696977
2013225409,3,-0.73005,2.4019501,6.7840505,1781122696987
2013225419,3,-0.75795,2.505,6.6859503,1781122696997
2013225429,3,-0.79200006,2.6820002,6.58995,1781122697007
2013225440,3,-0.804,2.9190001,6.5280004,1781122697017
2013225450,3,-0.76605004,3.2209501,6.5209503,1781122697027
2013225460,3,-0.68895006,3.5989501,6.5539503,1781122697037
2013225470,3,-0.591,4.05195,6.6000004,1781122697047
2013225480,3,-0.46905002,4.578,6.6979504,1781122697057
2013225490,3,-0.32700002,5.103,6.7860003,1781122697065
2013225500,3,-0.201,5.6800504,6.9250503,1781122697078
2013225510,3,-0.13605,6.16095,7.1260505,1781122697087
2013225520,3,-0.13605,6.5080504,7.347,1781122697098
2013225530,3,-0.20805001,6.7860003,7.6530004,1781122697106
2013225540,3,-0.282,6.90105,7.85895,1781122697118
2013225550,3,-0.36795002,6.91695,8.13195,1781122697128
2013225560,3,-0.45705003,6.8599505,8.367001,1781122697138
2013225570,3,-0.50205004,6.67995,8.677951,1781122697148
2013225581,3,-0.47805002,6.4030504,9.019951,1781122697158
2013225591,3,-0.49500003,6.1420503,9.259951,1781122697168
2013225601,3,-0.49695003,5.8620005,9.37695,1781122697178
2013225611,3,-0.46605003,5.56995,9.4129505,1781122697188
2013225621,3,-0.39195,5.2530003,9.436951,1781122697197
2013225631,3,-0.31095,4.9399505,9.406051,1781122697209
2013225641,3,-0.22695,4.6260004,9.32205,1781122697219
2013225651,3,-0.124050006,4.341,9.166051,1781122697229
2013225661,3,-0.043050002,4.08795,9.03195,1781122697238
2013225671,3,0.040050004,3.8940003,8.86005,1781122697249
2013225681,3,0.141,3.69495,8.674951,1781122697258
2013225691,3,0.23205002,3.5779502,8.51505,1781122697267
2013225701,3,0.30105,3.4939501,8.403001,1781122697278
2013225712,3,0.37995002,3.46005,8.2900505,1781122697287
2013225722,3,0.44505003,3.45795,8.21805,1781122697299
2013225732,3,0.46905002,3.4840503,8.158051,1781122697308
2013225742,3,0.462,3.5779502,8.127001,1781122697317
2013225752,3,0.42600003,3.7380002,8.079,1781122697329
2013225762,3,0.342,3.9060001,8.022,1781122697339
2013225772,3,0.246,4.083,7.9620004,1781122697349
2013225782,3,0.14595,4.22205,7.9450502,1781122697359
2013225792,3,0.04695,4.3819504,7.9840503,1781122697369
2013225802,3,-0.03795,4.578,8.03895,1781122697379
2013225812,3,-0.10005,4.7959504,8.127001,1781122697390
2013225822,3,-0.15795001,5.0400004,8.235001,1781122697399
2013225832,3,-0.20505,5.2390504,8.326051,1781122697410
2013225842,3,-0.22005,5.40705,8.42595,1781122697420
2013225853,3,-0.17400001,5.53095,8.544001,1781122697430
2013225863,3,-0.117000006,5.60295,8.7310505,1781122697440
2013225873,3,-0.055050004,5.6010003,8.92395,1781122697450
2013225883,3,0.009000001,5.60505,9.14505,1781122697460
2013225893,3,0.13095,5.598,9.427051,1781122697470
2013225903,3,0.22695,5.67495,9.628051,1781122697480
2013225913,3,0.38505003,5.7970505,9.777,1781122697490
2013225923,3,0.57405,5.96505,9.870001,1781122697500
2013225933,3,0.82605004,6.1369505,10.05,1781122697511
2013225943,3,0.99105006,6.3760505,10.378051,1781122697520
2013225953,3,1.0000501,6.5269504,10.9789505,1781122697531
2013225963,3,0.804,6.5149503,11.69505,1781122697541
2013225973,3,0.45000002,6.3090005,12.42195,1781122697550
2013225983,3,-0.0019500001,5.96505,13.098001,1781122697561
2013225994,3,-0.48795003,5.4739504,13.584001,1781122697570
2013226004,3,-0.91200006,4.9420505,13.828051,1781122697581
2013226014,3,-1.2229501,4.43895,13.80105,1781122697591
2013226024,3,-1.35,4.0399504,13.476001,1781122697601
2013226034,3,-1.2210001,3.7240503,12.958951,1781122697611
2013226044,3,-0.91605,3.5100002,12.363001,1781122697621
2013226054,3,-0.55995005,3.3289502,11.69505,1781122697631
2013226064,3,-0.23400001,3.1560001,10.927951,1781122697641
2013226074,3,0.021000002,2.93595,10.102051,1781122697651
2013226084,3,0.24405001,2.73705,9.303,1781122697661
2013226094,3,0.39900002,2.562,8.541,1781122697671
2013226104,3,0.50205004,2.4379501,7.87305,1781122697682
2013226114,3,0.54795,2.3419502,7.31295,1781122697692
2013226125,3,0.53595,2.29695,6.8770504,1781122697702
2013226135,3,0.555,2.292,6.597,1781122697718
2013226145,3,0.55005,2.3160002,6.5130005,1781122697722
2013226155,3,0.50505,2.35605,6.4939504,1781122697733
2013226165,3,0.45900002,2.397,6.4819503,1781122697742
2013226175,3,0.39000002,2.4400501,6.432,1781122697752
2013226185,3,0.33195,2.5429502,6.42495,1781122697762
2013226195,3,0.23895001,2.66805,6.4459505,1781122697772
2013226205,3,0.16005,2.7799501,6.4849505,1781122697782
2013226215,3,0.034950003,2.8500001,6.537,1781122697793
2013226225,3,-0.14595,2.8660502,6.5950503,1781122697803
2013226235,3,-0.39900002,2.8860002,6.7219505,1781122697813
2013226245,3,-0.64095,2.9620502,6.8650503,1781122697823
2013226255,3,-0.84000003,3.08205,7.01595,1781122697833
2013226266,3,-1.0360501,3.1939502,7.071,1781122697843
2013226276,3,-1.194,3.321,7.0399504,1781122697853
2013226286,3,-1.30005,3.525,6.9469504,1781122697863
2013226296,3,-1.3470001,3.8070002,6.8820004,1781122697873
2013226306,3,-1.3590001,4.1620502,7.0330505,1781122697883
2013226316,3,-1.36695,4.5019503,7.1260505,1781122697893
2013226326,3,-1.4119501,4.74795,7.2559505,1781122697903
2013226336,3,-1.4809501,4.9690504,7.4929504,1781122697913
2013226346,3,-1.5340501,5.20095,7.8019505,1781122697923
2013226356,3,-1.5679501,5.3160005,8.07705,1781122697934
2013226366,3,-1.5630001,5.42805,8.268001,1781122697943
2013226376,3,-1.59195,5.58405,8.403001,1781122697952
2013226386,3,-1.59405,5.7709503,8.503051,1781122697964
2013226397,3,-1.55805,5.95695,8.565001,1781122697974
2013226407,3,-1.4430001,6.1249504,8.62005,1781122697984
2013226417,3,-1.3450501,6.25395,8.635051,1781122697994
2013226427,3,-1.2900001,6.3190503,8.77095,1781122698004
2013226437,3,-1.2780001,6.33795,8.97,1781122698014
2013226447,3,-1.31895,6.333,9.17805,1781122698023
2013226457,3,-1.3879501,6.2640004,9.4150505,1781122698034
2013226467,3,-1.48395,6.1369505,9.637951,1781122698044
2013226477,3,-1.5820501,5.9620504,9.849001,1781122698054
2013226487,3,-1.66305,5.7900004,10.054951,1781122698065
2013226497,3,-1.7190001,5.5909505,10.17195,1781122698074
2013226507,3,-1.67295,5.3970003,10.26,1781122698085
2013226517,3,-1.60395,5.23005,10.26795,1781122698095
2013226527,3,-1.48905,5.0880003,10.207951,1781122698105
2013226538,3,-1.3810501,4.9879503,10.09305,1781122698115
2013226548,3,-1.2730501,4.83195,9.885,1781122698125
2013226558,3,-1.09605,4.72905,9.669001,1781122698135
2013226568,3,-0.924,4.6260004,9.5130005,1781122698145
2013226578,3,-0.75405,4.557,9.315001,1781122698155
2013226588,3,-0.59595,4.473,9.25695,1781122698165
2013226598,3,-0.45705003,4.3699503,9.195001,1781122698175
2013226608,3,-0.34905002,4.2670503,9.1380005,1781122698185
2013226618,3,-0.22200002,4.155,9.123,1781122698195
2013226628,3,-0.09,4.05195,9.04695,1781122698205
2013226638,3,0.025950002,3.93405,9.003,1781122698216
2013226648,3,0.112050004,3.9460502,9.04695,1781122698225
2013226658,3,0.22200002,3.9180002,8.865001,1781122698236
2013226669,3,0.32505003,3.89805,8.920051,1781122698245
2013226679,3,0.34905002,3.9439502,8.946,1781122698256
2013226689,3,0.43305,4.11105,8.93595,1781122698265
2013226699,3,0.531,4.2769504,8.971951,1781122698277
2013226709,3,0.59295005,4.39905,9.127951,1781122698285
2013226719,3,0.51405,4.43205,9.394051,1781122698295
2013226729,3,0.29595003,4.45905,9.84405,1781122698306
2013226739,3,-0.13095,4.5349503,10.33695,1781122698316
2013226749,3,-0.64605004,4.58295,10.81095,1781122698327
2013226759,3,-1.194,4.62405,11.182051,1781122698335
2013226769,3,-1.7160001,4.6600504,11.42895,1781122698346
2013226779,3,-2.1450002,4.83405,11.45505,1781122698357
2013226789,3,-2.40105,5.1070504,11.331,1781122698367
2013226799,3,-2.5759501,5.34,11.082001,1781122698377
2013226810,3,-2.6790001,5.505,10.816051,1781122698387
2013226820,3,-2.70495,5.5860004,10.504951,1781122698397
2013226830,3,-2.74305,5.538,10.18395,1781122698407
2013226840,3,-2.76495,5.4210005,9.880051,1781122698417
2013226850,3,-2.7889502,5.1979504,9.559051,1781122698426
2013226860,3,-2.76705,4.899,9.1710005,1781122698438
2013226870,3,-2.7150002,4.557,8.793,1781122698447
2013226880,3,-2.6430001,4.21005,8.41905,1781122698458
2013226890,3,-2.5780501,3.9220502,8.070001,1781122698468
2013226900,3,-2.5180502,3.6520503,7.8139505,1781122698478
2013226910,3,-2.466,3.3720002,7.5670505,1781122698488
2013226920,3,-2.42505,3.1660502,7.3710003,1781122698498
2013226930,3,-2.3700001,3.0169501,7.2390003,1781122698506
2013226940,3,-2.3700001,2.8830001,7.18095,1781122698518
2013226951,3,-2.29095,2.8140001,7.1340003,1781122698527
2013226961,3,-2.214,2.7949502,7.11,1781122698536
2013226971,3,-2.1660001,2.86905,7.05705,1781122698548
2013226981,3,-2.1060002,3.0600002,7.0639505,1781122698560
2013226991,3,-2.0370002,3.2710502,7.0980005,1781122698569
2013227001,3,-1.932,3.55605,7.1959505,1781122698579
2013227011,3,-1.8330001,3.8719501,7.287,1781122698589
2013227021,3,-1.74195,4.21005,7.3009505,1781122698597
2013227031,3,-1.659,4.63605,7.32495,1781122698609
2013227041,3,-1.56105,5.124,7.39905,1781122698617
2013227051,3,-1.43595,5.53095,7.5120006,1781122698627
2013227061,3,-1.28805,5.8380003,7.6510506,1781122698638
2013227071,3,-1.1730001,6.0270004,7.7869506,1781122698647
2013227082,3,-1.09605,6.1470003,7.9620004,1781122698659
2013227092,3,-1.0309501,6.19005,8.094001,1781122698668
2013227102,3,-0.97605,6.2179503,8.22105,1781122698679
2013227112,3,-0.90000004,6.1849504,8.367001,1781122698688
2013227122,3,-0.80205005,6.13005,8.517,1781122698698
2013227132,3,-0.69105005,6.0199504,8.661,1781122698708
2013227142,3,-0.57405,5.89305,8.788051,1781122698719
2013227152,3,-0.43005002,5.74905,8.901,1781122698730
2013227162,3,-0.30600002,5.577,8.95995,1781122698740
2013227172,3,-0.15495001,5.3880005,9.003,1781122698749
2013227182,3,-0.028050002,5.1720004,9.018001,1781122698759
2013227192,3,0.105000004,4.93695,8.98005,1781122698769
2013227202,3,0.23895001,4.68795,8.946,1781122698779
2013227212,3,0.37500003,4.46295,8.86905,1781122698790
2013227223,3,0.49005002,4.2670503,8.805,1781122698800
2013227233,3,0.6,4.20195,8.742001,1781122698810
2013227243,3,0.67905,3.9850502,8.677951,1781122698820
2013227253,3,0.78000003,3.85995,8.68995,1781122698831
2013227263,3,0.91395,3.7879503,8.71605,1781122698840
2013227273,3,1.029,3.7740002,8.71395,1781122698850
2013227283,3,1.17495,3.7039502,8.70705,1781122698859
2013227293,3,1.2280501,3.62805,8.532001,1781122698870
2013227303,3,1.4100001,3.59205,8.674951,1781122698880
2013227313,3,1.62495,3.6180003,8.75205,1781122698890
2013227323,3,1.67505,3.5989501,8.7640505,1781122698901
2013227333,3,1.644,3.6060002,8.86005,1781122698910
2013227343,3,1.6320001,3.6730502,8.898001,1781122698921
2013227354,3,1.644,3.7450502,8.974951,1781122698931
2013227364,3,1.7020501,3.8359501,9.042001,1781122698941
2013227374,3,1.74195,3.9390001,9.03495,1781122698950
2013227384,3,1.7830501,4.032,8.91705,1781122698961
2013227394,3,1.8019501,4.1280003,8.7619505,1781122698971
2013227404,3,1.8360001,4.22895,8.680051,1781122698981
2013227414,3,1.8840001,4.36305,8.69205,1781122698991
2013227424,3,1.9530001,4.4869504,8.85,1781122699001
2013227434,3,1.9200001,4.5760503,9.267,1781122699011
2013227444,3,1.7760001,4.63605,9.84105,1781122699021
2013227454,3,1.4650501,4.6210504,10.540951,1781122699031
2013227464,3,1.0030501,4.53795,11.259001,1781122699042
2013227474,3,0.46905002,4.42005,11.866951,1781122699052
2013227484,3,-0.061950002,4.31295,12.35805,1781122699062
2013227495,3,-0.47400004,4.24095,12.52995,1781122699072
2013227505,3,-0.67005,4.2790504,12.352951,1781122699082
2013227515,3,-0.65295005,4.3840504,12.127951,1781122699092
2013227525,3,-0.45195,4.54005,11.962951,1781122699101
2013227535,3,-0.21495001,4.6330504,11.93595,1781122699112
2013227545,3,-0.08295,4.59495,11.950951,1781122699122
2013227555,3,-0.14295001,4.39905,11.92905,1781122699131
2013227565,3,-0.33,4.0609503,11.73795,1781122699142
2013227575,3,-0.588,3.6490502,11.248951,1781122699152
2013227585,3,-0.768,3.24705,10.620001,1781122699161
2013227595,3,-0.80595005,2.67,9.89595,1781122699171
2013227605,3,-0.72,2.2060502,9.166051,1781122699183
2013227615,3,-0.51195,2.115,8.641951,1781122699193
2013227625,3,-0.21705002,2.1340501,8.20905,1781122699203
2013227636,3,0.055050004,2.1390002,7.7700005,1781122699213
2013227646,3,0.30405003,2.0689502,7.4449506,1781122699222
2013227656,3,0.49800003,2.0070002,7.2769504,1781122699234
2013227666,3,0.61005,1.99995,7.2370505,1781122699242
2013227676,3,0.63600004,1.9780501,7.3609505,1781122699253
2013227686,3,0.58095,1.96905,7.5930004,1781122699263
2013227696,3,0.41595003,1.9020001,7.866,1781122699272
2013227706,3,0.13800001,1.8079501,8.158051,1781122699283
2013227716,3,-0.20805001,1.7170501,8.368951,1781122699292
2013227726,3,-0.58605003,1.6810501,8.521951,1781122699302
2013227736,3,-0.91905004,1.6810501,8.60805,1781122699313
2013227746,3,-1.1850001,1.7560501,8.656051,1781122699324
2013227756,3,-1.371,1.9159501,8.644051,1781122699334
2013227767,3,-1.4140501,2.09805,8.6320505,1781122699344
2013227777,3,-1.4479501,2.2800002,8.52705,1781122699354
2013227787,3,-1.4580001,2.4739501,8.424001,1781122699364
2013227797,3,-1.4580001,2.7640502,8.28495,1781122699374
2013227807,3,-1.48395,3.0600002,8.13195,1781122699385
2013227817,3,-1.5460501,3.38805,8.002951,1781122699394
2013227827,3,-1.572,3.73095,7.905,1781122699403
2013227837,3,-1.5649501,4.0279503,7.7850003,1781122699414
2013227847,3,-1.58895,4.293,7.6410003,1781122699425
2013227857,3,-1.6060501,4.5739503,7.4400005,1781122699434
2013227867,3,-1.5840001,4.8180003,7.27995,1781122699445
2013227877,3,-1.5340501,5.0020504,7.0620003,1781122699455
2013227887,3,-1.4790001,5.21505,6.9280505,1781122699465
2013227897,3,-1.419,5.43795,6.8820004,1781122699475
2013227908,3,-1.4140501,5.6250005,6.8299503,1781122699485
2013227918,3,-1.4460001,5.79195,7.05,1781122699495
2013227928,3,-1.51995,5.9209504,7.3560004,1781122699505
2013227938,3,-1.6350001,5.9809504,7.6150503,1781122699515
2013227948,3,-1.76205,6.0679502,7.9210505,1781122699524
2013227958,3,-1.8240001,6.16095,8.182051,1781122699535
2013227968,3,-1.8690001,6.261,8.436001,1781122699547
2013227978,3,-1.8790501,6.32595,8.629951,1781122699556
2013227988,3,-1.8910501,6.4219503,8.802,1781122699566
2013227998,3,-1.8259501,6.46005,8.96805,1781122699576
2013228008,3,-1.7230501,6.46005,9.123,1781122699586
2013228018,3,-1.608,6.3810005,9.259951,1781122699596
2013228028,3,-1.4929501,6.23295,9.38895,1781122699605
2013228039,3,-1.40505,6.0480003,9.549001,1781122699616
2013228049,3,-1.31595,5.80905,9.624001,1781122699626
2013228059,3,-1.2610501,5.55,9.66705,1781122699636
2013228069,3,-1.16295,5.3370004,9.657001,1781122699646
2013228079,3,-1.041,5.1550503,9.64995,1781122699656
2013228089,3,-0.88095003,4.98495,9.609,1781122699666
2013228099,3,-0.73005,4.8630004,9.589951,1781122699676
2013228109,3,-0.615,4.73595,9.616051,1781122699686
2013228119,3,-0.49695003,4.6480503,9.69495,1781122699696
2013228129,3,-0.45405003,4.54005,9.762,1781122699705
2013228139,3,-0.45195,4.47795,9.882001,1781122699717
2013228149,3,-0.45705003,4.45905,9.966001,1781122699727
2013228159,3,-0.46605003,4.4440503,10.03995,1781122699737
2013228169,3,-0.46905002,4.51095,10.179001,1781122699747
2013228180,3,-0.462,4.6480503,10.375051,1781122699757
2013228190,3,-0.45705003,4.6860003,10.66695,1781122699767
2013228200,3,-0.51900005,4.6909504,10.94505,1781122699777
2013228210,3,-0.59595,4.6650004,11.2879505,1781122699787
2013228220,3,-0.735,4.64295,11.616,1781122699796
2013228230,3,-0.93795,4.54995,11.845051,1781122699808
2013228240,3,-1.14405,4.4160004,11.920051,1781122699818
2013228250,3,-1.3039501,4.2769504,11.877001,1781122699828
2013228260,3,-1.3950001,4.143,11.71605,1781122699838
2013228270,3,-1.3740001,4.00605,11.45505,1781122699849
2013228280,3,-1.3039501,3.8790002,11.151001,1781122699858
2013228290,3,-1.2400501,3.7189503,10.90005,1781122699868
2013228300,3,-1.21605,3.5779502,10.596001,1781122699878
2013228311,3,-1.2610501,3.4309502,10.308001,1781122699888
2013228321,3,-1.3039501,3.27795,10.057051,1781122699897
2013228331,3,-1.422,3.1270502,9.754951,1781122699908
2013228341,3,-1.5319501,2.9839501,9.47805,1781122699918
2013228351,3,-1.6110001,2.84295,9.243,1781122699928
2013228361,3,-1.63995,2.7280502,8.96805,1781122699939
2013228371,3,-1.6200001,2.634,8.652,1781122699949
2013228381,3,-1.5769501,2.5500002,8.304001,1781122699958
2013228391,3,-1.55595,2.5150502,7.8829503,1781122699969
2013228401,3,-1.5010501,2.56005,7.4350505,1781122699978
2013228411,3,-1.4460001,2.70405,6.98295,1781122699989
2013228421,3,-1.3980001,2.90505,6.537,1781122699999
2013228431,3,-1.3429501,3.1729503,6.15705,1781122700007
2013228441,3,-1.26405,3.4650002,5.8380003,1781122700017
2013228452,3,-1.1560501,3.759,5.5579505,1781122700027
2013228462,3,-1.04595,4.09695,5.3980503,1781122700037
2013228472,3,-0.92595005,4.46595,5.27295,1781122700049
2013228482,3,-0.78195006,4.827,5.18505,1781122700058
2013228492,3,-0.62700003,5.1979504,5.1199503,1781122700069
2013228502,3,-0.47595003,5.5960503,5.1199503,1781122700078
2013228512,3,-0.36105,6.0079503,5.1990004,1781122700089
2013228522,3,-0.31305,6.35505,5.4030004,1781122700099
2013228532,3,-0.342,6.5869503,5.6970005,1781122700109
2013228542,3,-0.48795003,6.8380504,6.08505,1781122700119
2013228552,3,-0.68700004,6.9919505,6.7600503,1781122700130
2013228562,3,-0.93600005,6.9889503,7.4740505,1781122700139
2013228572,3,-1.1920501,6.9250503,8.36205,1781122700150
2013228582,3,-1.4100001,6.6660004,9.127951,1781122700160
2013228593,3,-1.55295,6.2760005,9.736051,1781122700170
2013228603,3,-1.60395,5.874,10.12905,1781122700180
2013228613,3,-1.5319501,5.5339503,10.29195,1781122700190
2013228623,3,-1.27995,5.24205,10.356001,1781122700200
2013228633,3,-0.91395,5.0070004,10.335,1781122700209
2013228643,3,-0.55695003,4.78905,10.189051,1781122700220
2013228653,3,-0.20295002,4.557,10.057051,1781122700230
2013228663,3,0.13395001,4.3699503,9.943951,1781122700240
2013228673,3,0.41595003,4.155,9.83895,1781122700251
2013228683,3,0.63900006,3.9409502,9.70005,1781122700261
2013228693,3,0.80595005,3.6730502,9.55395,1781122700269
2013228703,3,0.93105006,3.4030502,9.375,1781122700279
2013228713,3,1.05795,3.1609502,9.20895,1781122700290
2013228724,3,1.13205,3.0559502,9.115951,1781122700300
2013228734,3,1.2090001,2.874,9.007951,1781122700311
2013228744,3,1.2540001,2.7490501,8.93595,1781122700321
2013228754,3,1.26405,2.7870002,8.818951,1781122700331
2013228764,3,1.2280501,2.90505,8.745001,1781122700341
2013228774,3,1.3450501,3.084,8.757,1781122700351
2013228784,3,1.3549501,3.2590501,8.677951,1781122700361
2013228794,3,1.3069501,3.4120502,8.64,1781122700371
2013228804,3,1.2280501,3.6109502,8.556001,1781122700381
2013228814,3,1.1850001,3.7810502,8.53695,1781122700391
2013228824,3,1.16295,3.97305,8.58405,1781122700401
2013228834,3,1.194,4.09695,8.611051,1781122700409
2013228844,3,1.2250501,4.21395,8.613001,1781122700420
2013228854,3,1.27995,4.3099504,8.58705,1781122700430
2013228865,3,1.3570501,4.40805,8.556001,1781122700442
2013228875,3,1.4140501,4.5259504,8.45505,1781122700452
2013228885,3,1.4820001,4.64505,8.37405,1781122700462
2013228895,3,1.59195,4.78905,8.299951,1781122700472
2013228905,3,1.7329501,4.93695,8.224951,1781122700482
2013228915,3,1.9009501,5.0400004,8.24895,1781122700492
2013228925,3,2.1709502,5.1550503,8.39805,1781122700502
2013228935,3,2.39595,5.2510505,8.680051,1781122700512
2013228945,3,2.4870002,5.2249503,9.35295,1781122700522
2013228955,3,2.322,5.13105,10.18095,1781122700532
2013228965,3,1.9720501,4.9900503,11.005051,1781122700542
2013228975,3,1.5769501,4.71,11.671051,1781122700553
2013228985,3,1.1560501,4.40595,12.255,1781122700563
2013228996,3,0.85695004,4.08795,12.552001,1781122700574
2013229006,3,0.68895006,3.7759502,12.619051,1781122700582
2013229016,3,0.64605004,3.5370002,12.588,1781122700593
2013229026,3,0.68700004,3.4050002,12.5779505,1781122700603
2013229036,3,0.651,3.2760003,12.64305,1781122700613
2013229046,3,0.50895,3.1030502,12.766951,1781122700622
2013229056,3,0.22905001,2.84505,12.646951,1781122700633
2013229066,3,-0.07095,2.5840502,12.288,1781122700643
2013229076,3,-0.30405003,2.4019501,11.7619505,1781122700654
2013229086,3,-0.38505003,2.25795,11.0460005,1781122700664
2013229096,3,-0.31995,2.2440002,10.29195,1781122700674
2013229106,3,-0.13605,2.2800002,9.564,1781122700684
2013229116,3,0.094950005,2.3710501,8.86695,1781122700694
2013229126,3,0.33495003,2.4790502,8.2560005,1781122700703
2013229137,3,0.46605003,2.5410001,7.79895,1781122700715
2013229147,3,0.55995005,2.5819502,7.4419503,1781122700725
2013229157,3,0.59295005,2.56995,7.2559505,1781122700735
2013229167,3,0.58095,2.57205,7.1719503,1781122700743
2013229177,3,0.53595,2.53395,7.1910005,1781122700755
2013229187,3,0.43995002,2.42595,7.2439504,1781122700765
2013229197,3,0.30105,2.25795,7.2559505,1781122700775
2013229207,3,0.14595,2.1000001,7.287,1781122700785
2013229217,3,-0.043050002,1.9759501,7.2990003,1781122700794
2013229227,3,-0.19095,1.8700501,7.3560004,1781122700805
2013229237,3,-0.36105,1.866,7.5139503,1781122700814
2013229247,3,-0.51195,1.84905,7.6909504,1781122700825
2013229257,3,-0.63195,1.866,7.806,1781122700835
2013229268,3,-0.76305,1.9060501,7.9189506,1781122700845
2013229278,3,-0.89505005,1.9810501,7.9860005,1781122700855
2013229288,3,-0.94500005,2.0670002,8.014951,1781122700865
2013229298,3,-0.97905004,2.12205,8.191951,1781122700875
2013229308,3,-1.04295,2.22195,8.323951,1781122700885
2013229318,3,-1.098,2.42595,8.412001,1781122700895
2013229328,3,-1.14405,2.7130501,8.532001,1781122700905
2013229338,3,-1.12695,3.0220501,8.568001,1781122700915
2013229348,3,-1.04805,3.3019502,8.653951,1781122700926
2013229358,3,-0.92100006,3.55095,8.649,1781122700936
2013229368,3,-0.70605004,3.8410501,8.577001,1781122700946
2013229378,3,-0.49995002,4.2000003,8.458051,1781122700956
2013229388,3,-0.33900002,4.5760503,8.39805,1781122700965
2013229398,3,-0.18900001,4.9489503,8.338051,1781122700976
2013229409,3,-0.093,5.3089504,8.359051,1781122700986
2013229419,3,-0.07395,5.598,8.44095,1781122700996
2013229429,3,-0.097950004,5.7780004,8.505,1781122701004
2013229439,3,-0.19095,5.9170504,8.6970005,1781122701016
2013229449,3,-0.33900002,6.0150003,8.89095,1781122701027
2013229459,3,-0.50505,6.0529504,9.1060505,1781122701036
2013229469,3,-0.65295005,6.0000005,9.40995,1781122701047
2013229479,3,-0.81405,5.95305,9.703051,1781122701056
2013229489,3,-0.96405005,5.874,9.925051,1781122701067
2013229499,3,-1.06005,5.7510004,10.05,1781122701077
2013229509,3,-1.1509501,5.6130004,10.074,1781122701086
2013229519,3,-1.24695,5.4090004,9.98505,1781122701097
2013229529,3,-1.302,5.17395,9.801001,1781122701107
2013229539,3,-1.2780001,4.9489503,9.576,1781122701117
2013229550,3,-1.1850001,4.71495,9.32205,1781122701127
2013229560,3,-1.0339501,4.49895,9.018001,1781122701137
2013229570,3,-0.86595005,4.308,8.74695,1781122701145
2013229580,3,-0.684,4.1070004,8.472,1781122701157
2013229590,3,-0.50505,3.9769502,8.27595,1781122701168
2013229600,3,-0.351,3.834,8.154,1781122701178
2013229610,3,-0.21705002,3.7380002,8.11005,1781122701187
2013229620,3,-0.109950006,3.69495,8.11995,1781122701198
2013229630,3,-0.058950003,3.7069502,8.224951,1781122701208
2013229640,3,-0.034950003,3.7879503,8.43105,1781122701217
2013229650,3,-0.055050004,3.89805,8.72595,1781122701227
2013229660,3,-0.10005,4.0729504,9.02295,1781122701238
2013229670,3,-0.162,4.2840004,9.240001,1781122701248
2013229681,3,-0.10695001,4.53,9.56595,1781122701258
2013229691,3,-0.109950006,4.7910004,9.954,1781122701267
2013229701,3,-0.18900001,5.02605,10.47105,1781122701278
2013229711,3,-0.37500003,5.1550503,11.06505,1781122701286
2013229721,3,-0.68700004,5.184,11.57205,1781122701299
2013229731,3,-1.0530001,5.1649504,11.958,1781122701306
2013229741,3,-1.4430001,5.13105,12.23805,1781122701317
2013229751,3,-1.7400001,5.0400004,12.279,1781122701329
2013229761,3,-1.8960001,4.9489503,12.127951,1781122701339
2013229771,3,-1.9600501,4.8970504,11.920051,1781122701349
2013229781,3,-1.98195,4.8559504,11.63895,1781122701359
2013229791,3,-1.968,4.755,11.283001,1781122701367
2013229801,3,-2.0059502,4.6000504,10.96395,1781122701379
2013229811,3,-2.118,4.36005,10.629001,1781122701387
2013229822,3,-2.2380002,4.056,10.276951,1781122701399
2013229832,3,-2.4079502,3.7549503,9.987,1781122701409
2013229842,3,-2.56395,3.45795,9.595051,1781122701417
2013229852,3,-2.70495,3.1710002,9.17595,1781122701429
2013229862,3,-2.80305,2.91195,8.78295,1781122701439
2013229872,3,-2.87295,2.6820002,8.476951,1781122701448
2013229882,3,-2.9320502,2.5240502,8.14395,1781122701459
2013229892,3,-2.9680502,2.436,7.8570004,1781122701469
2013229902,3,-2.9950502,2.397,7.62405,1781122701479
2013229912,3,-2.98005,2.38995,7.4329505,1781122701490
2013229922,3,-2.9590502,2.4520502,7.24905,1781122701498
2013229932,3,-2.9350502,2.56005,7.11,1781122701510
2013229942,3,-2.88,2.6820002,6.9349504,1781122701520
2013229953,3,-2.832,2.86905,6.8100004,1781122701529
2013229963,3,-2.73405,3.08205,6.7309504,1781122701539
2013229973,3,-2.607,3.28095,6.6570005,1781122701549
2013229983,3,-2.41995,3.5659502,6.6139503,1781122701559
2013229993,3,-2.21895,3.86505,6.609,1781122701570
2013230003,3,-2.01795,4.188,6.6859503,1781122701580
2013230013,3,-1.7899501,4.59705,6.7840505,1781122701590
2013230023,3,-1.62495,5.0400004,6.88005,1781122701600
2013230033,3,-1.4770501,5.57205,7.0350003,1781122701610
2013230043,3,-1.35,6.1129503,7.2769504,1781122701621
2013230053,3,-1.2970501,6.4099503,7.464,1781122701631
2013230063,3,-1.314,6.4789505,7.6050005,1781122701641
2013230073,3,-1.33305,6.3240004,7.7389503,1781122701651
2013230083,3,-1.33305,6.0360003,7.9090505,1781122701661
2013230094,3,-1.2210001,5.72805,8.11995,1781122701671
2013230104,3,-1.0720501,5.3970003,8.400001,1781122701681
2013230114,3,-0.96000004,5.1070504,8.79,1781122701690
2013230124,3,-0.82995003,4.8229504,9.255,1781122701702
2013230134,3,-0.75405,4.5259504,9.717,1781122701711
2013230144,3,-0.76995003,4.2379503,10.13805,1781122701721
2013230154,3,-0.83505005,4.0009503,10.465951,1781122701731
2013230164,3,-0.87600005,3.72795,10.585951,1781122701742
2013230174,3,-0.83295006,3.55095,10.56,1781122701751
2013230184,3,-0.71295005,3.4099503,10.43295,1781122701761
2013230194,3,-0.555,3.3409503,10.18095,1781122701771
2013230204,3,-0.40695003,3.31905,9.87495,1781122701781
2013230214,3,-0.22695,3.3409503,9.585,1781122701792
2013230225,3,-0.04695,3.3640501,9.387,1781122701802
2013230235,3,0.13605,3.4120502,9.22095,1781122701812
2013230245,3,0.25095,3.4480503,9.09,1781122701822
2013230255,3,0.33900002,3.5100002,8.962951,1781122701832
2013230265,3,0.40395,3.63,8.862,1781122701842
2013230275,3,0.43800002,3.7759502,8.75895,1781122701852
2013230285,3,0.45900002,3.89595,8.68305,1781122701862
2013230295,3,0.47400004,4.0009503,8.665951,1781122701872
2013230305,3,0.52395004,4.119,8.67105,1781122701882
2013230315,3,0.55995005,4.20195,8.68995,1781122701892
2013230325,3,0.57900006,4.26,8.72295,1781122701903
2013230335,3,0.57900006,4.308,8.742001,1781122701913
2013230345,3,0.56205004,4.33605,8.742001,1781122701922
2013230355,3,0.53805,4.4110503,8.776051,1781122701933
2013230366,3,0.56895,4.42995,8.83605,1781122701943
2013230376,3,0.69600004,4.4710503,8.833051,1781122701952
2013230386,3,0.82095003,4.48995,8.841001,1781122701962
2013230396,3,0.97395,4.5420003,8.817,1781122701974
2013230406,3,1.1200501,4.602,8.838,1781122701983
2013230416,3,1.2610501,4.70295,8.826,1781122701993
2013230426,3,1.33305,4.7959504,8.785951,1781122702003
2013230436,3,1.35195,4.8180003,8.745001,1781122702013
2013230446,3,1.3590001,4.86105,8.89305,1781122702023
2013230456,3,1.39995,4.84905,9.217051,1781122702034
2013230466,3,1.3879501,4.8250504,9.71895,1781122702043
2013230476,3,1.23705,4.86105,10.43805,1781122702052
2013230486,3,1.0189501,4.7629504,11.062051,1781122702064
2013230496,3,0.711,4.5880504,11.6629505,1781122702072
2013230507,3,0.33705002,4.353,12.183001,1781122702084
2013230517,3,-0.064050004,4.1140504,12.649951,1781122702094
2013230527,3,-0.34905002,3.9270003,12.778951,1781122702104
2013230537,3,-0.50895,3.6660001,12.753,1781122702114
2013230547,3,-0.483,3.4290001,12.646951,1781122702124
2013230557,3,-0.32295,3.2400002,12.736051,1781122702134
2013230567,3,-0.21300001,2.9910002,12.83205,1781122702144
2013230577,3,-0.22500001,2.6820002,12.693001,1781122702154
2013230587,3,-0.30795002,2.29695,12.250051,1781122702165
2013230597,3,-0.33495003,1.9039501,11.60805,1781122702175
2013230607,3,-0.27495003,1.5589501,10.785001,1781122702183
2013230617,3,-0.094950005,1.2859501,9.880051,1781122702195
2013230627,3,0.14805001,1.1740501,9.027,1781122702205
2013230638,3,0.43500003,1.1400001,8.307,1781122702214
2013230648,3,0.72495,1.15005,7.7920504,1781122702224
2013230658,3,0.98595005,1.18095,7.4659505,1781122702234
2013230668,3,1.20105,1.21395,7.3390503,1781122702246
2013230678,3,1.3120501,1.2379501,7.3009505,1781122702254
2013230688,3,1.3399501,1.24995,7.3420506,1781122702264
2013230698,3,1.26795,1.2529501,7.5070505,1781122702275
2013230708,3,1.12695,1.2430501,7.6579504,1781122702284
2013230718,3,0.90000004,1.19295,7.72695,1781122702294
2013230728,3,0.64095,1.1520001,7.8450003,1781122702304
2013230738,3,0.33,1.1380501,7.9399505,1781122702315
2013230748,3,0.057000004,1.092,7.9909506,1781122702325
2013230758,3,-0.21495001,1.09695,8.055,1781122702334
2013230768,3,-0.45000002,1.14495,8.094001,1781122702344
2013230779,3,-0.69405,1.27695,8.082001,1781122702355
2013230789,3,-0.88095003,1.49205,8.03895,1781122702365
2013230799,3,-1.029,1.72905,8.007,1781122702376
2013230809,3,-1.149,2.028,7.9450502,1781122702385
2013230819,3,-1.194,2.328,7.9090505,1781122702398
2013230829,3,-1.23,2.6490002,7.8880506,1781122702407
2013230839,3,-1.2589501,2.95005,7.8450003,1781122702415
2013230849,3,-1.2610501,3.28095,7.8040504,1781122702425
2013230859,3,-1.28295,3.594,7.8300004,1781122702435
2013230869,3,-1.3549501,3.8910003,7.7820005,1781122702448
2013230879,3,-1.4260501,4.131,7.8090005,1781122702456
2013230889,3,-1.4670001,4.3840504,7.8349504,1781122702466
2013230899,3,-1.5079501,4.6000504,7.9140005,1781122702475
2013230910,3,-1.55805,4.7580004,8.094001,1781122702486
2013230920,3,-1.623,4.9489503,8.37405,1781122702496
2013230930,3,-1.6489501,5.11695,8.7310505,1781122702507
2013230940,3,-1.7260501,5.27295,9.115951,1781122702521
2013230950,3,-1.7689501,5.3880005,9.432,1781122702527
2013230960,3,-1.7899501,5.5860004,9.693001,1781122702536
2013230970,3,-1.7880001,5.7400503,9.89595,1781122702548
2013230980,3,-1.7400001,5.874,10.05,1781122702558
2013230990,3,-1.66305,5.92605,10.111951,1781122702568
2013231000,3,-1.5769501,5.8330503,10.095,1781122702577
2013231010,3,-1.47,5.6940002,10.03995,1781122702588
2013231020,3,-1.33305,5.5740004,10.002001,1781122702597
2013231030,3,-1.2090001,5.42805,9.955951,1781122702607
2013231040,3,-1.11,5.2650003,9.873,1781122702618
2013231051,3,-1.0530001,5.0620503,9.79605,1781122702626
2013231061,3,-1.02705,4.83195,9.67905,1781122702637
2013231071,3,-1.01505,4.62405,9.540001,1781122702648
2013231081,3,-0.97200006,4.4160004,9.451051,1781122702659
2013231091,3,-0.924,4.22895,9.31005,1781122702667
2013231101,3,-0.88095003,4.06605,9.160951,1781122702679
2013231111,3,-0.81600004,3.9610503,9.02505,1781122702689
2013231121,3,-0.72,3.85995,8.934,1781122702698
2013231131,3,-0.648,3.82695,8.826,1781122702708
2013231141,3,-0.57600003,3.7909503,8.72295,1781122702718
2013231151,3,-0.52605003,3.798,8.6970005,1781122702727
2013231161,3,-0.48600003,3.8170502,8.6629505,1781122702739
2013231171,3,-0.44205,3.834,8.62005,1781122702748
2013231181,3,-0.37500003,3.8620503,8.601001,1781122702757
2013231192,3,-0.31305,3.9460502,8.521951,1781122702767
2013231202,3,-0.22200002,4.083,8.391001,1781122702777
2013231212,3,-0.08295,4.26195,8.38605,1781122702787
2013231222,3,0.094950005,4.5090003,8.39805,1781122702799
2013231232,3,0.16995001,4.755,8.635051,1781122702809
2013231242,3,0.052050002,4.8850503,9.04905,1781122702819
2013231252,3,-0.30795002,4.92105,9.657001,1781122702829
2013231262,3,-0.86100006,4.8850503,10.428,1781122702840
2013231272,3,-1.47405,4.815,11.19705,1781122702849
2013231282,3,-2.14905,4.6740003,11.802001,1781122702860
2013231292,3,-2.6569502,4.53795,12.121051,1781122702870
2013231302,3,-2.913,4.49895,12.207001,1781122702880
2013231312,3,-2.9200501,4.4490004,12.130051,1781122702890
2013231323,3,-2.87505,4.4560504,12.04905,1781122702900
2013231333,3,-2.7820501,4.51095,12.027,1781122702910
2013231343,3,-2.805,4.57095,12.099001,1781122702920
2013231353,3,-2.90595,4.5160503,12.02295,1781122702930
2013231363,3,-3.00705,4.368,11.704051,1781122702940
2013231373,3,-3.07095,4.1740503,11.187,1781122702949
2013231383,3,-3.0660002,3.9199502,10.48305,1781122702960
2013231393,3,-2.9869502,3.72795,9.79395,1781122702969
2013231403,3,-2.80095,3.6180003,9.097051,1781122702981
2013231413,3,-2.60205,3.6040502,8.577001,1781122702991
2013231423,3,-2.39595,3.5749502,8.082001,1781122703001
2013231433,3,-2.2380002,3.5700002,7.7370005,1781122703010
2013231443,3,-2.12295,3.5440502,7.4830503,1781122703021
2013231453,3,-2.04405,3.5010002,7.3110003,1781122703029
2013231464,3,-1.9939501,3.45795,7.215,1781122703041
2013231474,3,-1.9459502,3.381,7.1310005,1781122703051
2013231484,3,-1.9099501,3.3409503,7.1140504,1781122703059
2013231494,3,-1.9290001,3.3000002,7.15005,1781122703069
2013231504,3,-1.9480501,3.31695,7.2030005,1781122703081
2013231514,3,-1.9200001,3.3330002,7.21995,1781122703091
2013231524,3,-1.8529501,3.4459503,7.215,1781122703101
2013231534,3,-1.7520001,3.5989501,7.2649503,1781122703111
2013231544,3,-1.6159501,3.7999501,7.2750006,1781122703121
2013231554,3,-1.4959501,4.02495,7.1860504,1781122703131
2013231564,3,-1.3930501,4.269,7.1460004,1781122703141
2013231574,3,-1.2730501,4.5420003,7.1650505,1781122703152
2013231584,3,-1.12695,4.73595,7.15005,1781122703162
2013231595,3,-1.02195,4.914,7.1460004,1781122703172
2013231605,3,-0.92805004,5.0550003,7.155,1781122703181
2013231615,3,-0.88500005,5.16195,7.1460004,1781122703192
2013231625,3,-0.82500005,5.3160005,7.1020503,1781122703202
2013231635,3,-0.78195006,5.6269503,7.3390503,1781122703211
2013231645,3,-0.79200006,5.5339503,7.2460504,1781122703221
2013231655,3,-0.79005,5.4690003,7.2750006,1781122703232
2013231665,3,-0.711,5.41095,7.2319503,1781122703241
2013231675,3,-0.63600004,5.38005,7.215,1781122703252
2013231685,3,-0.555,5.2699504,7.4089503,1781122703262
2013231695,3,-0.46395,5.1649504,7.5840006,1781122703272
2013231705,3,-0.38700002,5.136,7.905,1781122703282
2013231715,3,-0.36105,5.1270003,8.149051,1781122703291
2013231725,3,-0.41400003,5.0280004,8.44095,1781122703302
2013231736,3,-0.531,4.9759502,8.721001,1781122703311
2013231746,3,-0.59805006,4.839,8.983951,1781122703323
2013231756,3,-0.66,4.7119503,9.23595,1781122703333
2013231766,3,-0.70605004,4.6000504,9.51105,1781122703343
2013231776,3,-0.72,4.5259504,9.66705,1781122703353
2013231786,3,-0.70095,4.4710503,9.766951,1781122703363
2013231796,3,-0.61200005,4.4539504,9.901051,1781122703373
2013231806,3,-0.531,4.45095,9.97305,1781122703383
2013231816,3,-0.45195,4.45095,10.01895,1781122703393
2013231826,3,-0.40905002,4.4440503,9.99195,1781122703404
2013231836,3,-0.36105,4.425,9.95205,1781122703414
2013231846,3,-0.28005,4.4370003,9.89595,1781122703424
2013231856,3,-0.21495001,4.43205,9.870001,1781122703432
2013231867,3,-0.16005,4.48005,9.82695,1781122703444
2013231877,3,-0.08595,4.533,9.79395,1781122703452
2013231887,3,-0.021000002,4.58295,9.657001,1781122703464
2013231897,3,0.033,4.66905,9.51105,1781122703474
2013231907,3,0.12900001,4.74795,9.406051,1781122703485
2013231917,3,0.24900001,4.83405,9.252001,1781122703494
2013231927,3,0.351,4.90605,9.121051,1781122703503
2013231937,3,0.43500003,4.9830003,9.0060005,1781122703514
2013231947,3,0.53805,5.0479503,8.934,1781122703525
2013231957,3,0.615,5.1150002,8.86005,1781122703533
2013231967,3,0.72300005,5.2249503,8.74695,1781122703545
2013231977,3,0.74205005,5.22195,8.57505,1781122703554
2013231987,3,0.804,5.2200003,8.368951,1781122703565
2013231997,3,0.924,5.3419504,8.36205,1781122703575
2013232008,3,1.09395,5.3899503,8.46,1781122703585
2013232018,3,1.16805,5.361,8.73795,1781122703595
2013232028,3,1.14405,5.1979504,9.015,1781122703605
2013232038,3,1.0890001,5.0500503,9.42,1781122703615
2013232048,3,0.97395,4.854,10.002001,1781122703625
2013232058,3,0.79005,4.58505,10.64595,1781122703635
2013232068,3,0.47400004,4.2169504,11.118001,1781122703645
2013232078,3,0.064050004,3.903,11.425951,1781122703656
2013232088,3,-0.22905001,3.4960501,11.75205,1781122703665
2013232098,3,-0.45705003,2.9890501,11.991,1781122703676
2013232108,3,-0.65295005,2.59095,12.03495,1781122703684
2013232118,3,-0.77505004,2.25105,11.908051,1781122703696
2013232128,3,-0.804,1.983,11.604,1781122703704
2013232138,3,-0.72300005,1.7890501,11.127001,1781122703716
2013232149,3,-0.54300004,1.6210501,10.593,1781122703725
2013232159,3,-0.28395,1.4830501,10.069051,1781122703736
2013232169,3,-0.010950001,1.353,9.481951,1781122703745
2013232179,3,0.22500001,1.2580501,8.88405,1781122703756
2013232189,3,0.43500003,1.21695,8.344951,1781122703766
2013232199,3,0.57405,1.2019501,7.905,1781122703776
2013232209,3,0.67695004,1.1910001,7.5769506,1781122703787
2013232219,3,0.71505004,1.2,7.4040003,1781122703797
2013232229,3,0.744,1.2240001,7.2960005,1781122703807
2013232239,3,0.69600004,1.31505,7.3009505,1781122703816
2013232249,3,0.591,1.404,7.4539504,1781122703826
2013232259,3,0.44700003,1.5280501,7.7029505,1781122703837
2013232269,3,0.27705002,1.6530001,7.8970504,1781122703847
2013232280,3,0.079050004,1.8229501,8.167951,1781122703857
2013232290,3,-0.14595,1.9930501,8.42205,1781122703866
2013232300,3,-0.37995002,2.1360002,8.611051,1781122703877
2013232310,3,-0.59595,2.328,8.818951,1781122703887
2013232320,3,-0.82800007,2.562,9.087001,1781122703898
2013232330,3,-1.0360501,2.9020503,9.328951,1781122703907
2013232340,3,-1.2040501,3.28095,9.47805,1781122703917
2013232350,3,-1.3590001,3.7429502,9.585,1781122703926
2013232360,3,-1.4500501,4.2259502,9.607051,1781122703938
2013232370,3,-1.48905,4.6810503,9.595051,1781122703948
2013232380,3,-1.5319501,5.1000004,9.49695,1781122703957
2013232390,3,-1.5340501,5.4760504,9.39105,1781122703968
2013232400,3,-1.5319501,5.7130504,9.23805,1781122703977
2013232410,3,-1.5150001,5.91195,9.030001,1781122703989
2013232421,3,-1.4460001,6.0100503,8.79,1781122703998
2013232431,3,-1.3470001,6.05595,8.580001,1781122704008
2013232441,3,-1.29495,6.02895,8.38305,1781122704018
2013232451,3,-1.194,5.9740505,8.20395,1781122704028
2013232461,3,-1.1080501,5.89305,8.06505,1781122704038
2013232471,3,-1.06005,5.79195,7.9450502,1781122704049
2013232481,3,-1.00695,5.6650505,7.9669504,1781122704058
2013232491,3,-1.0390501,5.5789504,7.9740005,1781122704069
2013232501,3,-1.0860001,5.445,8.005051,1781122704079
2013232511,3,-1.125,5.3179502,8.055,1781122704088
2013232521,3,-1.1580001,5.2180505,8.103001,1781122704097
2013232531,3,-1.19895,5.1120005,8.17695,1781122704108
2013232541,3,-1.24695,5.0740504,8.25405,1781122704117
2013232552,3,-1.28805,5.0160003,8.280001,1781122704127
2013232562,3,-1.2970501,4.97805,8.2879505,1781122704138
2013232572,3,-1.28505,4.9609504,8.235001,1781122704150
2013232582,3,-1.24395,4.99305,8.13405,1781122704158
2013232592,3,-1.1869501,5.01405,8.022,1781122704168
2013232602,3,-1.1149501,5.02395,7.8930006,1781122704179
2013232612,3,-1.0170001,5.0479503,7.8610506,1781122704189
2013232622,3,-0.8880001,5.09805,7.7629504,1781122704199
2013232632,3,-0.78000003,5.14095,7.6770005,1781122704210
2013232642,3,-0.62700003,5.19105,7.5769506,1781122704218
2013232652,3,-0.49005002,5.2390504,7.5210004,1781122704229
2013232662,3,-0.31095,5.32095,7.4620504,1781122704239
2013232672,3,-0.18405001,5.373,7.45905,1781122704249
2013232682,3,-0.06705,5.4229503,7.51905,1781122704258
2013232693,3,0.016050002,5.46705,7.72695,1781122704270
2013232703,3,0.049950004,5.4550505,7.9600506,1781122704279
2013232713,3,0.033,5.505,8.14395,1781122704289
2013232723,3,0.0,5.5360503,8.38095,1781122704299
2013232733,3,-0.040050004,5.5620003,8.64,1781122704309
2013232743,3,-0.08595,5.5480504,9.078,1781122704320
2013232753,3,-0.21000001,5.565,9.693001,1781122704330
2013232763,3,-0.483,5.5339503,10.38,1781122704340
2013232773,3,-0.80205005,5.4760504,11.022,1781122704350
2013232783,3,-1.1010001,5.40705,11.592001,1781122704361
2013232793,3,-1.338,5.32305,11.95995,1781122704370
2013232803,3,-1.5340501,5.2699504,12.097051,1781122704381
2013232813,3,-1.6609501,5.1859503,12.043951,1781122704391
2013232823,3,-1.74195,5.0740504,11.90505,1781122704399
2013232834,3,-1.7539501,5.0550003,11.842951,1781122704411
2013232844,3,-1.7520001,5.004,11.87205,1781122704421
2013232854,3,-1.8769501,4.93695,11.944051,1781122704431
2013232864,3,-2.0730002,4.794,11.941051,1781122704441
2013232874,3,-2.26005,4.6090503,11.85,1781122704450
2013232884,3,-2.427,4.39395,11.55105,1781122704460
2013232894,3,-2.5489502,4.16895,11.029051,1781122704471
2013232904,3,-2.5090501,3.9580503,10.404,1781122704481
2013232914,3,-2.319,3.76395,9.65505,1781122704491
2013232924,3,-2.08005,3.5730002,8.908051,1781122704502
2013232934,3,-1.8409501,3.4459503,8.187,1781122704512
2013232944,3,-1.6129501,3.31905,7.5739503,1781122704521
2013232954,3,-1.4620501,3.2280002,7.0950003,1781122704532
2013232965,3,-1.32105,3.1300502,6.7099504,1781122704542
2013232975,3,-1.21095,3.075,6.4440002,1781122704552
2013232985,3,-1.14195,3.0319502,6.2410502,1781122704562
2013232995,3,-1.11,3.0220501,6.13005,1781122704572
2013233005,3,-1.11,3.01005,6.0349503,1781122704582
2013233015,3,-1.1340001,3.0240002,5.9749503,1781122704592
2013233025,3,-1.18005,3.0340502,5.9820004,1781122704602
2013233035,3,-1.18005,3.1030502,6.0060005,1781122704612
2013233045,3,-1.16295,3.24705,6.0370502,1781122704621
2013233055,3,-1.10595,3.4510503,6.1969504,1781122704632
2013233065,3,-1.02405,3.7140002,6.3510003,1781122704644
2013233075,3,-0.92100006,4.05405,6.50895,1781122704651
2013233085,3,-0.873,4.42695,6.7530003,1781122704662
2013233095,3,-0.87600005,4.8300004,7.00395,1781122704673
2013233106,3,-0.92805004,5.196,7.2559505,1781122704683
2013233116,3,-0.98805004,5.50005,7.53105,1781122704693
2013233126,3,-1.06305,5.7900004,7.8490505,1781122704703
2013233136,3,-1.16805,5.9599504,8.23005,1781122704713
2013233146,3,-1.2559501,6.05595,8.668051,1781122704723
2013233156,3,-1.31895,6.0529504,9.07005,1781122704733
2013233166,3,-1.3260001,6.0480003,9.436951,1781122704743
2013233176,3,-1.27995,5.9929504,9.70995,1781122704752
2013233186,3,-1.194,5.84205,9.846001,1781122704763
2013233196,3,-1.041,5.68905,9.92805,1781122704774
2013233206,3,-0.86100006,5.538,9.892051,1781122704783
2013233216,3,-0.675,5.42595,9.772051,1781122704794
2013233226,3,-0.43800002,5.2060504,9.69795,1781122704803
2013233237,3,-0.21000001,4.971,9.585,1781122704814
2013233247,3,-0.049950004,4.8250504,9.430051,1781122704824
2013233257,3,0.09,4.71495,9.24495,1781122704834
2013233267,3,0.24105,4.56195,9.099,1781122704844
2013233277,3,0.35895002,4.38705,9.003,1781122704854
2013233287,3,0.49005002,4.2190504,8.95995,1781122704864
2013233297,3,0.58395004,4.0609503,8.938951,1781122704874
2013233307,3,0.615,3.9150002,8.944051,1781122704885
2013233317,3,0.61005,3.7860003,8.953051,1781122704894
2013233327,3,0.61005,3.7090502,8.941051,1781122704905
2013233337,3,0.59595,3.62505,8.857051,1781122704914
2013233347,3,0.588,3.6109502,8.79,1781122704924
2013233357,3,0.591,3.5850003,8.69205,1781122704934
2013233367,3,0.61200005,3.5820003,8.59605,1781122704945
2013233378,3,0.64395005,3.58995,8.553,1781122704955
2013233388,3,0.684,3.5850003,8.568001,1781122704966
2013233398,3,0.71805006,3.6450002,8.60805,1781122704975
2013233408,3,0.75405,3.7159503,8.613001,1781122704986
2013233418,3,0.79695004,3.8239503,8.68995,1781122704995
2013233428,3,0.83295006,3.9130502,8.86005,1781122705005
2013233438,3,0.87105006,4.05405,8.989051,1781122705015
2013233448,3,0.89295006,4.24095,9.280951,1781122705026
2013233458,3,0.89295006,4.43895,9.44205,1781122705034
2013233468,3,0.87105006,4.6000504,9.516001,1781122705045
2013233478,3,0.85905004,4.75995,9.645,1781122705055
2013233488,3,0.88500005,4.95195,9.858001,1781122705066
2013233498,3,0.91905004,5.11905,10.239,1781122705076
2013233509,3,0.84900004,5.2180505,10.714951,1781122705086
2013233519,3,0.66705,5.26305,11.319,1781122705096
2013233529,3,0.34395,5.17395,11.865001,1781122705106
2013233539,3,0.0,5.0479503,12.322051,1781122705116
2013233549,3,-0.31995,4.8970504,12.721951,1781122705126
2013233559,3,-0.51900005,4.6810503,12.901051,1781122705137
2013233569,3,-0.63195,4.4040003,12.913051,1781122705146
2013233579,3,-0.64605004,4.2169504,12.826951,1781122705156
2013233589,3,-0.60300004,4.0420504,12.613951,1781122705166
2013233599,3,-0.60300004,3.7669501,12.327001,1781122705175
2013233609,3,-0.63195,3.417,11.965051,1781122705187
2013233619,3,-0.61995006,3.0289502,11.527051,1781122705198
2013233629,3,-0.588,2.6149502,10.857,1781122705206
2013233639,3,-0.53595,2.26305,10.17405,1781122705216
2013233650,3,-0.44205,1.9759501,9.501,1781122705226
2013233660,3,-0.31095,1.7320501,8.841001,1781122705236
2013233670,3,-0.14595,1.557,8.23695,1781122705246
2013233680,3,0.034950003,1.485,7.76805,1781122705258
2013233690,3,0.19095,1.45095,7.4620504,1781122705266
2013233700,3,0.33,1.47105,7.27995,1781122705275
2013233710,3,0.41595003,1.48695,7.2510004,1781122705287
2013233720,3,0.43800002,1.57605,7.3560004,1781122705297
2013233730,3,0.40905002,1.6380001,7.5259504,1781122705307
2013233740,3,0.31605002,1.6720501,7.7580004,1781122705318
2013233750,3,0.17400001,1.6980001,7.8970504,1781122705328
2013233760,3,0.033,1.7029501,8.09595,1781122705338
2013233770,3,-0.186,1.7050501,8.25195,1781122705348
2013233780,3,-0.39705002,1.7200501,8.3880005,1781122705358
2013233791,3,-0.61695004,1.7359501,8.467051,1781122705368
2013233801,3,-0.80895007,1.8250501,8.497951,1781122705378
2013233811,3,-0.96000004,1.9380001,8.500951,1781122705388
2013233821,3,-1.041,2.12205,8.42895,1781122705397
2013233831,3,-1.04805,2.33295,8.331,1781122705407
2013233841,3,-1.02195,2.601,8.259001,1781122705418
2013233851,3,-0.96000004,2.95005,8.163,1781122705428
2013233861,3,-0.9480001,3.2970002,8.07705,1781122705438
2013233871,3,-0.91395,3.7069502,8.002951,1781122705448
2013233881,3,-0.88095003,4.083,7.905,1781122705459
2013233891,3,-0.88095003,4.4749503,7.8300004,1781122705469
2013233901,3,-0.91395,4.839,7.76805,1781122705477
2013233911,3,-0.9979501,5.1460505,7.6770005,1781122705488
2013233922,3,-1.1010001,5.4349504,7.656,1781122705498
2013233932,3,-1.2709501,5.7180004,7.6270504,1781122705507
2013233942,3,-1.4310001,5.931,7.60305,1781122705518
2013233952,3,-1.623,6.135,7.6530004,1781122705529
2013233962,3,-1.82895,6.30705,7.8180003,1781122705538
2013233972,3,-1.9480501,6.4150505,7.9840503,1781122705549
2013233982,3,-2.0350502,6.43095,8.170051,1781122705559
2013233992,3,-2.08005,6.4219503,8.39505,1781122705570
2013234002,3,-2.1040502,6.36,8.544001,1781122705580
2013234012,3,-2.061,6.2899504,8.61795,1781122705589
2013234022,3,-1.9890001,6.1780505,8.629951,1781122705599
2013234032,3,-1.8769501,6.0720005,8.577001,1781122705610
2013234042,3,-1.7329501,5.9740505,8.41905,1781122705618
2013234052,3,-1.5769501,5.8690505,8.2900505,1781122705630
2013234063,3,-1.4290501,5.7319503,8.16495,1781122705640
2013234073,3,-1.26795,5.5740004,8.11995,1781122705650
2013234083,3,-1.146,5.4040504,8.07495,1781122705661
2013234093,3,-1.029,5.2270503,8.055,1781122705670
2013234103,3,-0.89505005,5.091,8.023951,1781122705680
2013234113,3,-0.79695004,4.9399505,8.127001,1781122705690
2013234123,3,-0.675,4.827,8.223001,1781122705700
2013234133,3,-0.62205005,4.77495,8.368951,1781122705711
2013234143,3,-0.55005,4.7719502,8.51295,1781122705719
2013234153,3,-0.45900002,4.8439503,8.677951,1781122705731
2013234163,3,-0.36600003,4.9950004,8.769,1781122705741
2013234173,3,-0.33,5.196,8.920051,1781122705750
2013234183,3,-0.24795002,5.44005,9.02505,1781122705761
2013234194,3,-0.19605,5.6680503,9.21195,1781122705771
2013234204,3,-0.105000004,5.9550004,9.646951,1781122705781
2013234214,3,-0.0139500005,6.35505,10.2289505,1781122705791
2013234224,3,-0.12900001,6.5080504,11.007001,1781122705801
2013234234,3,-0.41595003,6.4030504,11.824051,1781122705809
2013234244,3,-0.83295006,6.16095,12.517951,1781122705821
2013234254,3,-1.36905,5.8450503,13.12905,1781122705831
2013234264,3,-1.845,5.49795,13.404,1781122705840
2013234274,3,-2.15205,5.0809503,13.248001,1781122705851
2013234284,3,-2.2380002,4.7650504,12.882001,1781122705861
2013234294,3,-2.07495,4.545,12.35805,1781122705871
2013234304,3,-1.881,4.3099504,11.806951,1781122705881
2013234314,3,-1.7380501,4.0420504,11.304001,1781122705892
2013234324,3,-1.6660501,3.798,10.897051,1781122705902
2013234335,3,-1.67805,3.5460002,10.548,1781122705912
2013234345,3,-1.7209501,3.27795,10.081051,1781122705922
2013234355,3,-1.7710501,2.9910002,9.691051,1781122705932
2013234365,3,-1.7740501,2.70795,9.20205,1781122705941
2013234375,3,-1.7400001,2.46705,8.67105,1781122705951
2013234385,3,-1.7040001,2.28195,8.199,1781122705963
2013234395,3,-1.6489501,2.1340501,7.6720505,1781122705973
2013234405,3,-1.5960001,2.0740502,7.2250504,1781122705982
2013234415,3,-1.5409501,2.05995,6.9229503,1781122705992
2013234425,3,-1.5079501,2.0719502,6.74805,1781122706002
2013234435,3,-1.4790001,2.1409502,6.6480002,1781122706013
2013234445,3,-1.4670001,2.28195,6.7170005,1781122706022
2013234455,3,-1.4929501,2.50305,6.9090004,1781122706033
2013234466,3,-1.575,2.874,7.2750006,1781122706043
2013234476,3,-1.7880001,3.35205,7.4089503,1781122706053
2013234486,3,-1.9909501,3.7930503,7.41795,1781122706063
2013234496,3,-2.08995,4.2190504,7.2340503,1781122706073
2013234506,3,-1.9600501,4.69605,7.0279503,1781122706081
2013234516,3,-1.695,5.2870502,6.7219505,1781122706093
2013234526,3,-1.3470001,5.979,6.3820505,1781122706103
2013234536,3,-0.924,6.6730504,6.0469503,1781122706113
2013234546,3,-0.56505,7.1689506,5.70405,1781122706123
2013234556,3,-0.27495003,7.4820004,5.46,1781122706133
2013234566,3,-0.049950004,7.5730505,5.43405,1781122706144
2013234576,3,0.064050004,7.52295,5.4529505,1781122706153
2013234586,3,0.117000006,7.3390503,5.68305,1781122706163
2013234596,3,0.06705,7.0729504,6.0730505,1781122706174
2013234607,3,-0.055050004,6.7710004,6.5490003,1781122706185
2013234617,3,-0.22500001,6.38595,6.9210005,1781122706193
2013234627,3,-0.43800002,6.04395,7.2580504,1781122706204
2013234637,3,-0.555,5.7109504,7.51905,1781122706213
2013234647,3,-0.60795003,5.41905,7.72695,1781122706223
2013234657,3,-0.61005,5.1790504,7.9860005,1781122706233
2013234667,3,-0.55005,5.0209503,8.244,1781122706243
2013234677,3,-0.45405003,4.87995,8.41695,1781122706254
2013234687,3,-0.33705002,4.7530503,8.40495,1781122706263
2013234697,3,-0.19605,4.64505,8.39295,1781122706273
2013234707,3,-0.009000001,4.5690002,8.352,1781122706283
2013234717,3,0.17400001,4.506,8.3550005,1781122706294
2013234727,3,0.354,4.42005,8.43105,1781122706304
2013234737,3,0.45405003,4.3440003,8.496,1781122706315
2013234748,3,0.47805002,4.33395,8.556001,1781122706325
2013234758,3,0.50205004,4.308,8.680051,1781122706335
2013234768,3,0.46605003,4.3170004,8.85495,1781122706345
2013234778,3,0.411,4.4490004,9.099,1781122706355
2013234788,3,0.411,4.6480503,9.424951,1781122706365
2013234798,3,0.41805002,4.74405,9.64305,1781122706375
2013234808,3,0.39900002,4.78695,9.73095,1781122706385
2013234818,3,0.35895002,4.8630004,9.733951,1781122706395
2013234828,3,0.31800002,4.9609504,9.727051,1781122706405
2013234838,3,0.25305,5.0400004,9.729,1781122706415
2013234848,3,0.186,5.1049504,9.79395,1781122706425
2013234858,3,0.126,5.11695,9.93,1781122706436
2013234868,3,0.07395,5.16195,10.014001,1781122706444
2013234879,3,-0.0019500001,5.1670504,10.074,1781122706456
2013234889,3,-0.033,5.1220503,10.069051,1781122706464
2013234899,3,0.08295,5.091,9.999001,1781122706476
2013234909,3,0.27,5.23005,9.96105,1781122706485
2013234919,3,0.45000002,5.3640003,10.111951,1781122706495
2013234929,3,0.57705003,5.3490005,10.440001,1781122706505
2013234939,3,0.57195,5.21295,10.9140005,1781122706516
2013234949,3,0.46905002,5.01405,11.31105,1781122706526
2013234959,3,0.21300001,4.7629504,11.541,1781122706535
2013234969,3,-0.07395,4.48005,11.65095,1781122706547
2013234979,3,-0.27705002,4.1670003,11.5990505,1781122706557
2013234989,3,-0.33,3.96795,11.424001,1781122706567
2013234999,3,-0.30105,3.8460002,11.27595,1781122706577
2013235009,3,-0.16695,3.82905,11.13195,1781122706587
2013235020,3,-0.009000001,3.8770502,11.067,1781122706597
2013235030,3,0.08805001,3.8890502,11.038951,1781122706607
2013235040,3,0.17205001,3.8149502,10.882951,1781122706618
2013235050,3,0.186,3.6730502,10.61205,1781122706627
2013235060,3,0.17400001,3.45795,10.1310005,1781122706638
2013235070,3,0.186,3.1420503,9.489,1781122706647
2013235080,3,0.294,2.8540502,8.862,1781122706657
2013235090,3,0.48105,2.70105,8.368951,1781122706668
2013235100,3,0.67905,2.64105,8.026951,1781122706677
2013235110,3,0.75600004,2.775,7.8520503,1781122706688
2013235120,3,0.84705,2.36595,7.689,1781122706698
2013235130,3,0.84000003,2.08095,7.6510506,1781122706708
2013235140,3,0.78000003,1.9879501,7.5880504,1781122706718
2013235151,3,0.73905003,1.9470001,7.6750503,1781122706728
2013235161,3,0.68895006,1.9060501,7.85895,1781122706738
2013235171,3,0.591,1.8060001,8.005051,1781122706748
2013235181,3,0.50205004,1.7149501,8.158051,1781122706758
2013235191,3,0.37095,1.6360501,8.352,1781122706768
2013235201,3,0.25305,1.557,8.39295,1781122706778
2013235211,3,0.13095,1.5330001,8.497951,1781122706789
2013235221,3,0.010950001,1.54005,8.544001,1781122706797
2013235231,3,-0.117000006,1.59,8.613001,1781122706807
2013235241,3,-0.23895001,1.6530001,8.64,1781122706819
2013235251,3,-0.39195,1.72695,8.6320505,1781122706827
2013235261,3,-0.591,1.83,8.674951,1781122706839
2013235271,3,-0.80895007,1.9930501,8.656051,1781122706847
2013235281,3,-1.01505,2.2009501,8.601001,1781122706857
2013235292,3,-1.2280501,2.49105,8.532001,1781122706869
2013235302,3,-1.4119501,2.8279502,8.40705,1781122706878
2013235312,3,-1.51995,3.18495,8.2879505,1781122706889
2013235322,3,-1.6159501,3.4840503,8.12205,1781122706898
2013235332,3,-1.6489501,3.7399502,7.9120502,1781122706910
2013235342,3,-1.6350001,3.9750001,7.7560506,1781122706919
2013235352,3,-1.6800001,4.22205,7.6650004,1781122706929
2013235362,3,-1.67505,4.4370003,7.6789503,1781122706939
2013235372,3,-1.6710001,4.6410003,7.7200503,1781122706950
2013235382,3,-1.6969501,4.80105,7.8570004,1781122706959
2013235392,3,-1.7329501,4.90395,8.08395,1781122706969
2013235402,3,-1.8240001,4.959,8.36205,1781122706978
2013235412,3,-1.9219501,5.0670004,8.565001,1781122706988
2013235422,3,-1.9990501,5.1720004,8.7640505,1781122707000
2013235433,3,-2.0700002,5.36595,8.90505,1781122707008
2013235443,3,-2.1379502,5.5740004,8.92905,1781122707020
2013235453,3,-2.12295,5.7990003,8.962951,1781122707030
2013235463,3,-2.11395,6.0340505,8.88105,1781122707040
2013235473,3,-2.0659502,6.22305,8.74005,1781122707050
2013235483,3,-2.0059502,6.3570004,8.544001,1781122707060
2013235493,3,-1.9120501,6.4510503,8.39505,1781122707070
2013235503,3,-1.79295,6.4960504,8.292001,1781122707080
2013235513,3,-1.67295,6.5059505,8.212951,1781122707090
2013235523,3,-1.5700501,6.4410005,8.151,1781122707100
2013235533,3,-1.47195,6.3520503,8.22105,1781122707111
2013235543,3,-1.3879501,6.22095,8.335051,1781122707121
2013235553,3,-1.33095,6.0720005,8.51295,1781122707131
2013235564,3,-1.2709501,5.9500504,8.7640505,1781122707141
2013235574,3,-1.20105,5.80905,9.05895,1781122707151
2013235584,3,-1.16505,5.6839504,9.33405,1781122707161
2013235594,3,-1.113,5.6290503,9.65505,1781122707171
2013235604,3,-1.065,5.6340003,9.99195,1781122707181
2013235614,3,-1.05795,5.6599503,10.368,1781122707191
2013235624,3,-1.09605,5.7250504,10.882951,1781122707200
2013235634,3,-1.2559501,5.77995,11.448001,1781122707210
2013235644,3,-1.51995,5.66295,11.967001,1781122707219
2013235654,3,-1.845,5.4570003,12.394051,1781122707230
2013235664,3,-2.1450002,5.2819505,12.694951,1781122707242
2013235674,3,-2.3170502,5.1859503,12.9199505,1781122707251
2013235684,3,-2.42205,5.0929503,12.98295,1781122707260
2013235694,3,-2.5159502,4.92495,12.87195,1781122707271
2013235705,3,-2.6239502,4.71705,12.6,1781122707281
2013235715,3,-2.7190502,4.4490004,12.352951,1781122707290
2013235725,3,-2.7820501,4.1449504,12.1060505,1781122707301
2013235735,3,-2.8129501,3.8119502,11.898001,1781122707312
2013235745,3,-2.83905,3.4789503,11.641951,1781122707322
2013235755,3,-2.841,3.1609502,11.185051,1781122707332
2013235765,3,-2.7960002,2.838,10.584001,1781122707342
2013235775,3,-2.6910002,2.5549502,9.916051,1781122707352
2013235785,3,-2.5129502,2.32305,9.243,1781122707362
2013235795,3,-2.29305,2.1360002,8.52,1781122707372
2013235805,3,-2.0680501,1.9900501,7.794,1781122707383
2013235815,3,-1.8240001,1.9300501,7.2169504,1781122707393
2013235825,3,-1.6279501,1.8919501,6.7309504,1781122707403
2013235836,3,-1.4650501,1.88505,6.327,1781122707413
2013235846,3,-1.3549501,1.8970501,6.0420003,1781122707423
2013235856,3,-1.31895,1.9210501,5.8360505,1781122707432
2013235866,3,-1.2730501,1.9930501,5.6920505,1781122707443
2013235876,3,-1.28295,2.112,5.63205,1781122707453
2013235886,3,-1.3090501,2.289,5.604,1781122707463
2013235896,3,-1.3930501,2.46405,5.62995,1781122707473
2013235906,3,-1.52205,2.69895,5.78595,1781122707483
2013235916,3,-1.5820501,2.93805,6.0270004,1781122707492
2013235926,3,-1.575,3.21795,6.1780505,1781122707503
2013235936,3,-1.50495,3.561,6.3700504,1781122707513
2013235946,3,-1.40505,4.01595,6.5850005,1781122707524
2013235956,3,-1.2349501,4.5469503,6.7770004,1781122707532
2013235966,3,-1.029,5.151,6.9900002,1781122707542
2013235977,3,-0.873,5.7559505,7.25295,1781122707554
2013235987,3,-0.79695004,6.261,7.5859504,1781122707563
2013235997,3,-0.73695004,6.6730504,7.938,1781122707575
2013236007,3,-0.79695004,7.0350003,8.30895,1781122707584
2013236017,3,-0.85200006,7.1689506,8.677951,1781122707594
2013236027,3,-0.91395,7.143,9.04395,1781122707604
2013236037,3,-0.97395,7.0660505,9.336,1781122707614
2013236047,3,-1.0000501,6.85305,9.525001,1781122707623
2013236057,3,-0.97605,6.5389504,9.601951,1781122707634
2013236067,3,-0.85905004,6.2299504,9.66705,1781122707644
2013236077,3,-0.68895006,5.931,9.68595,1781122707656
2013236087,3,-0.49995002,5.64405,9.640051,1781122707665
2013236097,3,-0.31995,5.34,9.489,1781122707674
2013236108,3,-0.141,5.043,9.33405,1781122707685
2013236118,3,0.0139500005,4.722,9.19995,1781122707695
2013236128,3,0.12900001,4.40595,9.0390005,1781122707705
2013236138,3,0.25305,4.13805,8.86695,1781122707715
2013236148,3,0.351,3.9529502,8.685,1781122707725
2013236158,3,0.45195,3.8029501,8.533951,1781122707735
2013236168,3,0.54300004,3.6490502,8.434051,1781122707745
2013236178,3,0.62895006,3.558,8.302051,1781122707755
2013236188,3,0.68895006,3.5419502,8.22105,1781122707765
2013236198,3,0.73005,3.5659502,8.191951,1781122707775
2013236208,3,0.744,3.6130502,8.187,1781122707785
2013236218,3,0.75795,3.6469502,8.17305,1781122707794
2013236228,3,0.73905003,3.7399502,8.09595,1781122707804
2013236238,3,0.72705,3.8700001,8.127001,1781122707816
2013236249,3,0.70605004,3.999,8.13,1781122707826
2013236259,3,0.70095,4.155,8.11305,1781122707836
2013236269,3,0.78000003,4.32,8.05095,1781122707846
2013236279,3,0.88305,4.45905,8.047951,1781122707856
2013236289,3,0.97200006,4.64295,8.031,1781122707866
2013236299,3,1.0530001,4.854,8.115001,1781122707876
2013236309,3,1.1220001,5.1120005,8.268001,1781122707887
2013236319,3,1.16505,5.3640003,8.44995,1781122707897
2013236329,3,1.11,5.4310503,8.56095,1781122707905
2013236339,3,0.99600005,5.3440504,8.677951,1781122707917
2013236349,3,1.0309501,5.3490005,8.96805,1781122707927
2013236359,3,1.005,5.4139504,9.613951,1781122707937
2013236369,3,0.87795,5.2530003,10.71105,1781122707946
2013236379,3,0.53295004,5.0550003,11.92695,1781122707956
2013236390,3,0.043050002,4.8030005,12.83895,1781122707968
2013236400,3,-0.53295004,4.5210004,13.584001,1781122707978
2013236410,3,-0.933,4.18305,13.96695,1781122707987
2013236420,3,-1.182,3.8550003,14.0119505,1781122707998
2013236430,3,-1.2540001,3.5800502,13.83495,1781122708007
2013236440,3,-1.20105,3.3979502,13.423051,1781122708018
2013236450,3,-1.0720501,3.21795,13.026001,1781122708028
2013236460,3,-0.96405005,2.9550002,12.625951,1781122708038
2013236470,3,-0.8880001,2.742,12.24495,1781122708048
2013236480,3,-0.84705,2.50305,11.75205,1781122708058
2013236490,3,-0.77805007,2.2459502,11.11995,1781122708066
2013236500,3,-0.70605004,2.043,10.405951,1781122708078
2013236510,3,-0.60495,1.8370501,9.66195,1781122708088
2013236521,3,-0.46605003,1.72905,8.98005,1781122708097
2013236531,3,-0.33195,1.6570501,8.43795,1781122708108
2013236541,3,-0.21300001,1.6500001,7.9740005,1781122708117
2013236551,3,-0.126,1.6690501,7.5979505,1781122708129
2013236561,3,-0.094950005,1.72395,7.3440003,1781122708139
2013236571,3,-0.064050004,1.8030001,7.1959505,1781122708149
2013236581,3,-0.08805001,1.9060501,7.1580005,1781122708159
2013236591,3,-0.126,2.0070002,7.2010503,1781122708169
2013236601,3,-0.20805001,2.05995,7.3279505,1781122708178
2013236611,3,-0.33,2.11695,7.4929504,1781122708187
2013236621,3,-0.46605003,2.1979501,7.6770005,1781122708197
2013236631,3,-0.62700003,2.26095,7.87305,1781122708207
2013236641,3,-0.81105006,2.31795,7.9879503,1781122708217
2013236651,3,-0.95205003,2.4499502,8.034,1781122708228
2013236662,3,-1.09395,2.59605,8.022,1781122708237
2013236672,3,-1.2250501,2.7559502,8.05095,1781122708249
2013236682,3,-1.2970501,2.9329503,8.125051,1781122708257
2013236692,3,-1.3759501,3.1420503,8.211,1781122708268
2013236702,3,-1.5150001,3.4099503,8.2879505,1781122708278
2013236712,3,-1.6200001,3.7069502,8.331,1781122708287
2013236722,3,-1.7329501,3.9919503,8.376,1781122708298
2013236732,3,-1.8360001,4.2169504,8.391001,1781122708308
2013236742,3,-1.9240501,4.392,8.491051,1781122708319
2013236752,3,-1.9890001,4.5210004,8.458051,1781122708330
2013236762,3,-1.9909501,4.638,8.42595,1781122708340
2013236772,3,-1.9410001,4.7389503,8.37405,1781122708350
2013236782,3,-1.881,4.8300004,8.224951,1781122708360
2013236793,3,-1.8409501,4.93695,8.149051,1781122708370
2013236803,3,-1.79805,5.004,8.082001,1781122708379
2013236813,3,-1.7659501,5.076,7.96395,1781122708390
2013236823,3,-1.7350501,5.0950503,7.9759502,1781122708400
2013236833,3,-1.6969501,5.124,8.04105,1781122708410
2013236843,3,-1.7070001,5.1670504,8.137051,1781122708420
2013236853,3,-1.7260501,5.1859503,8.19705,1781122708430
2013236863,3,-1.7260501,5.21295,8.259001,1781122708440
2013236873,3,-1.7710501,5.2530003,8.314051,1781122708449
2013236883,3,-1.7740501,5.28,8.371051,1781122708460
2013236893,3,-1.7740501,5.2969503,8.39505,1781122708470
2013236903,3,-1.7880001,5.2650003,8.42205,1781122708481
2013236913,3,-1.7569501,5.26095,8.38605,1781122708490
2013236923,3,-1.7740501,5.1859503,8.34,1781122708501
2013236934,3,-1.7710501,5.0929503,8.26605,1781122708510
2013236944,3,-1.7040001,5.01405,8.20395,1781122708521
2013236954,3,-1.64205,4.9399505,8.155951,1781122708530
2013236964,3,-1.5370501,4.854,8.11005,1781122708540
2013236974,3,-1.4290501,4.7790003,8.09595,1781122708551
2013236984,3,-1.33095,4.67595,8.191951,1781122708561
2013236994,3,-1.24395,4.557,8.307,1781122708571
2013237004,3,-1.2040501,4.413,8.472,1781122708581
2013237014,3,-1.197,4.3099504,8.71605,1781122708591
2013237024,3,-1.197,4.23105,9.03495,1781122708600
2013237034,3,-1.194,4.2120004,9.418051,1781122708611
2013237044,3,-1.197,4.2169504,9.906,1781122708621
2013237054,3,-1.2229501,4.2649503,10.429951,1781122708632
2013237064,3,-1.2610501,4.3840504,11.062051,1781122708642
2013237075,3,-1.3879501,4.5349503,11.91195,1781122708652
2013237085,3,-1.6159501,4.6000504,12.793051,1781122708661
2013237095,3,-1.9560001,4.578,13.384951,1781122708672
2013237105,3,-2.193,4.52295,13.693951,1781122708682
2013237115,3,-2.2720501,4.5540004,13.732051,1781122708694
2013237125,3,-2.15895,4.5930004,13.52595,1781122708702
2013237135,3,-1.9720501,4.59705,13.18605,1781122708712
2013237145,3,-1.728,4.5259504,12.69795,1781122708722
2013237155,3,-1.4790001,4.44705,12.243001,1781122708732
2013237165,3,-1.302,4.3219504,11.802001,1781122708742
2013237175,3,-1.23,4.0420504,11.413951,1781122708753
2013237185,3,-1.2229501,3.7189503,11.139001,1781122708762
2013237195,3,-1.2610501,3.4120502,10.88805,1781122708771
2013237206,3,-1.35195,3.0529501,10.6050005,1781122708781
2013237216,3,-1.4479501,2.6940002,10.215,1781122708793
2013237226,3,-1.47,2.35605,9.82005,1781122708803
2013237236,3,-1.4310001,2.08095,9.360001,1781122708811
2013237246,3,-1.338,1.83,8.886001,1781122708823
2013237256,3,-1.24905,1.6210501,8.41905,1781122708832
2013237266,3,-1.1850001,1.43505,8.029051,1781122708843
2013237276,3,-1.1179501,1.2889501,7.7230506,1781122708853
2013237286,3,-1.0189501,1.19805,7.4620504,1781122708863
2013237296,3,-0.96195006,1.1190001,7.2370505,1781122708873
2013237306,3,-0.82305,1.0849501,7.04505,1781122708883
2013237316,3,-0.74205005,1.11405,6.8580003,1781122708894
2013237326,3,-0.70095,1.18305,6.774,1781122708902
2013237336,3,-0.69600004,1.42305,6.59205,1781122708914
2013237347,3,-0.69105005,1.74405,6.49695,1781122708924
2013237357,3,-0.66495,2.127,6.50895,1781122708934
2013237367,3,-0.65805006,2.5240502,6.58995,1781122708942
2013237377,3,-0.63405,2.943,6.6829505,1781122708953
2013237387,3,-0.60495,3.39105,6.8220005,1781122708965
2013237397,3,-0.57195,3.8460002,6.98295,1781122708974
2013237407,3,-0.54795,4.3219504,7.2390003,1781122708985
2013237417,3,-0.56895,4.767,7.6120505,1781122708994
2013237427,3,-0.65295005,5.17005,7.9879503,1781122709005
2013237437,3,-0.78195006,5.47095,8.391001,1781122709014
2013237447,3,-0.94500005,5.67,8.769,1781122709025
2013237457,3,-1.12995,5.76795,9.06105,1781122709034
2013237467,3,-1.266,5.7900004,9.276,1781122709045
2013237478,3,-1.3789501,5.7780004,9.45405,1781122709055
2013237488,3,-1.3279501,5.7180004,9.552,1781122709065
2013237498,3,-1.21305,5.622,9.624001,1781122709075
2013237508,3,-1.0339501,5.5339503,9.61905,1781122709085
2013237518,3,-0.85695004,5.385,9.493951,1781122709095
2013237528,3,-0.64095,5.23005,9.288,1781122709104
2013237538,3,-0.45900002,5.06895,9.07005,1781122709115
2013237548,3,-0.27,4.87995,8.838,1781122709125
2013237558,3,-0.076050006,4.6860003,8.589001,1781122709134
2013237568,3,0.08595,4.48995,8.400001,1781122709146
2013237578,3,0.246,4.31505,8.24205,1781122709156
2013237588,3,0.37500003,4.155,8.13,1781122709165
2013237598,3,0.507,4.0300503,8.05305,1781122709175
2013237608,3,0.59295005,3.9220502,8.13195,1781122709184
2013237619,3,0.67200005,3.8430002,8.23995,1781122709197
2013237629,3,0.73695004,3.7830002,8.448,1781122709204
2013237639,3,0.73905003,3.73095,8.72295,1781122709215
2013237649,3,0.69105005,3.6850502,8.99895,1781122709225
2013237659,3,0.60300004,3.6450002,9.279,1781122709235
2013237669,3,0.50895,3.6520503,9.50895,1781122709245
2013237679,3,0.41595003,3.62295,9.68295,1781122709257
2013237689,3,0.34905002,3.59205,9.80595,1781122709266
2013237699,3,0.34695002,3.6130502,9.8560505,1781122709275
2013237709,3,0.40905002,3.6370502,9.894,1781122709285
2013237719,3,0.46605003,3.6709502,9.870001,1781122709296
2013237729,3,0.53595,3.726,9.81,1781122709306
2013237739,3,0.63405,3.7930503,9.78195,1781122709317
2013237750,3,0.72705,3.8910003,9.762,1781122709327
2013237760,3,0.81795,4.044,9.736051,1781122709337
2013237770,3,0.93795,4.21395,9.625951,1781122709347
2013237780,3,1.01505,4.3320003,9.552,1781122709358
2013237790,3,1.1029501,4.425,9.595051,1781122709367
2013237800,3,1.1770501,4.48995,9.765,1781122709378
2013237810,3,1.16505,4.4610004,10.078051,1781122709388
2013237820,3,1.01505,4.44705,10.701,1781122709398
2013237830,3,0.71505004,4.353,11.3550005,1781122709409
2013237840,3,0.294,4.18095,12.010951,1781122709418
2013237850,3,-0.12195001,3.9060001,12.39795,1781122709426
2013237860,3,-0.47805002,3.6180003,12.622951,1781122709438
2013237870,3,-0.71805006,3.2590501,12.633,1781122709448
2013237880,3,-0.81795,2.98095,12.612,1781122709458
2013237891,3,-0.82500005,2.7469501,12.55605,1781122709468
2013237901,3,-0.82995003,2.46705,12.37695,1781122709478
2013237911,3,-0.82500005,2.11905,12.06795,1781122709487
2013237921,3,-0.78705,1.8229501,11.644051,1781122709497
2013237931,3,-0.67200005,1.5499501,11.071951,1781122709507
2013237941,3,-0.51900005,1.3369501,10.299001,1781122709519
2013237951,3,-0.35595003,1.18095,9.573001,1781122709528
2013237961,3,-0.162,1.1020501,8.821051,1781122709538
2013237971,3,-0.010950001,1.128,8.194051,1781122709547
2013237981,3,0.124050006,1.21905,7.7299504,1781122709559
2013237991,3,0.282,1.3410001,7.4350505,1781122709568
2013238001,3,0.34395,1.4749501,7.2390003,1781122709579
2013238011,3,0.34395,1.57395,7.155,1781122709589
2013238021,3,0.27195,1.6500001,7.17705,1781122709599
2013238032,3,0.17895001,1.7410501,7.3080006,1781122709609
2013238042,3,0.016050002,1.8370501,7.51905,1781122709618
2013238052,3,-0.17205001,1.8900001,7.8160505,1781122709628
2013238062,3,-0.39000002,1.9380001,8.11305,1781122709639
2013238072,3,-0.66,1.9470001,8.335051,1781122709652
2013238082,3,-0.86895007,1.9590001,8.53695,1781122709661
2013238092,3,-1.077,1.9969501,8.62005,1781122709669
2013238102,3,-1.2400501,2.06205,8.616,1781122709680
2013238112,3,-1.3909501,2.2080002,8.54595,1781122709690
2013238122,3,-1.4809501,2.42595,8.48595,1781122709699
2013238132,3,-1.5820501,2.6839502,8.42595,1781122709710
2013238142,3,-1.623,2.9260502,8.39295,1781122709720
2013238152,3,-1.6830001,3.1609502,8.42205,1781122709729
2013238163,3,-1.74195,3.42405,8.493,1781122709740
2013238173,3,-1.8190501,3.6760502,8.59605,1781122709750
2013238183,3,-1.881,3.9409502,8.686951,1781122709760
2013238193,3,-1.9410001,4.155,8.709001,1781122709770
2013238203,3,-1.9960501,4.3390503,8.674951,1781122709780
2013238213,3,-2.0389502,4.49205,8.67105,1781122709790
2013238223,3,-2.061,4.617,8.628,1781122709800
2013238233,3,-2.085,4.7410502,8.57295,1781122709810
2013238243,3,-2.05395,4.80105,8.53695,1781122709820
2013238253,3,-2.0029502,4.8250504,8.517,1781122709830
2013238263,3,-1.9600501,4.8439503,8.46,1781122709840
2013238273,3,-1.9050001,4.827,8.39505,1781122709850
2013238283,3,-1.8529501,4.8679504,8.331,1781122709861
2013238293,3,-1.74705,4.9159503,8.27805,1781122709871
2013238304,3,-1.63995,5.00895,8.2560005,1781122709879
2013238314,3,-1.5370501,5.091,8.25405,1781122709891
2013238324,3,-1.4430001,5.19105,8.23005,1781122709901
2013238334,3,-1.3950001,5.2650003,8.20605,1781122709911
2013238344,3,-1.35,5.3179502,8.212951,1781122709921
2013238354,3,-1.338,5.32095,8.21805,1781122709931
2013238364,3,-1.3470001,5.2969503,8.30895,1781122709941
2013238374,3,-1.3879501,5.21505,8.403001,1781122709951
2013238384,3,-1.4650501,5.136,8.55105,1781122709962
2013238394,3,-1.5010501,4.9900503,8.647051,1781122709972
2013238404,3,-1.5079501,4.8900003,8.75895,1781122709982
2013238414,3,-1.5130501,4.7700005,8.79,1781122709991
2013238424,3,-1.4430001,4.70505,8.85495,1781122710002
2013238435,3,-1.3590001,4.6480503,8.982,1781122710012
2013238445,3,-1.28295,4.56405,9.139951,1781122710022
2013238455,3,-1.2229501,4.485,9.35505,1781122710032
2013238465,3,-1.2210001,4.4160004,9.525001,1781122710042
2013238475,3,-1.21605,4.33605,9.68595,1781122710052
2013238485,3,-1.18005,4.341,9.825001,1781122710062
2013238495,3,-1.0890001,4.39395,9.90795,1781122710072
2013238505,3,-0.93795,4.4869504,10.05,1781122710082
2013238515,3,-0.75600004,4.64295,10.356001,1781122710092
2013238525,3,-0.66300005,4.8109503,10.854,1781122710102
2013238535,3,-0.76995003,4.8439503,11.368951,1781122710113
2013238545,3,-1.065,4.7790003,11.86005,1781122710121
2013238555,3,-1.4100001,4.6309505,12.373951,1781122710133
2013238565,3,-1.7590501,4.4539504,12.738001,1781122710141
2013238576,3,-2.0010002,4.2910504,12.942,1781122710153
2013238586,3,-2.16105,4.06395,12.918,1781122710163
2013238596,3,-2.2069502,3.8389502,12.910951,1781122710173
2013238606,3,-2.22105,3.5989501,12.918,1781122710183
2013238616,3,-2.26395,3.3049502,12.880051,1781122710193
2013238626,3,-2.29305,2.9550002,12.631051,1781122710202
2013238636,3,-2.331,2.5860002,12.250051,1781122710212
2013238646,3,-2.298,2.3040001,11.721001,1781122710222
2013238656,3,-2.1780002,2.02095,11.071951,1781122710232
2013238666,3,-2.01495,1.7869501,10.276951,1781122710243
2013238676,3,-1.8330001,1.641,9.492001,1781122710254
2013238686,3,-1.6680001,1.554,8.82405,1781122710263
2013238696,3,-1.5010501,1.49205,8.20605,1781122710272
2013238706,3,-1.3590001,1.45095,7.6750503,1781122710283
2013238717,3,-1.26405,1.485,7.2289505,1781122710293
2013238727,3,-1.194,1.52295,6.8970003,1781122710304
2013238737,3,-1.194,1.641,6.6259503,1781122710314
2013238747,3,-1.2420001,1.8010501,6.43905,1781122710325
2013238757,3,-1.3429501,1.99995,6.3409505,1781122710334
2013238767,3,-1.4290501,2.2440002,6.26205,1781122710345
2013238777,3,-1.48905,2.50005,6.19995,1781122710354
2013238787,3,-1.5130501,2.80395,6.1660504,1781122710365
2013238797,3,-1.5169501,3.1660502,6.1759505,1781122710373
2013238807,3,-1.4790001,3.5970001,6.1810503,1781122710385
2013238817,3,-1.47405,4.05405,6.2050505,1781122710395
2013238827,3,-1.40205,4.5160503,6.2449503,1781122710405
2013238837,3,-1.33095,5.02395,6.3289504,1781122710413
2013238848,3,-1.23195,5.5740004,6.4510503,1781122710425
2013238858,3,-1.13205,6.1270504,6.576,1781122710435
2013238868,3,-0.99300003,6.87195,6.8370004,1781122710445
2013238878,3,-0.99105006,7.10895,7.0639505,1781122710455
2013238888,3,-1.0669501,7.056,7.32,1781122710465
2013238898,3,-1.09395,6.9030004,7.4830503,1781122710475
2013238908,3,-1.065,6.6469502,7.60305,1781122710486
2013238918,3,-1.01205,6.32595,7.7730002,1781122710495
2013238928,3,-0.88095003,6.0049505,7.9210505,1781122710506
2013238938,3,-0.70305,5.67,8.06295,1781122710515
2013238948,3,-0.49995002,5.2770004,8.295,1781122710524
2013238958,3,-0.29895002,4.99305,8.568001,1781122710534
2013238968,3,-0.12900001,4.722,8.853001,1781122710546
2013238978,3,-0.07095,4.4040003,9.139951,1781122710556
2013238989,3,-0.097950004,4.0800004,9.35805,1781122710565
2013238999,3,-0.094950005,3.7789502,9.40305,1781122710576
2013239009,3,-0.094950005,3.5100002,9.4150505,1781122710586
2013239019,3,-0.06705,3.3070502,9.37905,1781122710595
2013239029,3,-0.00405,3.15105,9.316951,1781122710605
2013239039,3,0.079050004,3.04095,9.286051,1781122710617
2013239049,3,0.177,2.9910002,9.19305,1781122710626
2013239059,3,0.29895002,2.979,9.22395,1781122710636
2013239069,3,0.402,3.0319502,9.23595,1781122710645
2013239079,3,0.45705003,3.1390502,9.252001,1781122710658
2013239089,3,0.531,3.2400002,9.288,1781122710666
2013239099,3,0.55995005,3.4150503,9.298051,1781122710678
2013239109,3,0.59295005,3.58695,9.292951,1781122710687
2013239120,3,0.61005,3.7240503,9.3,1781122710697
2013239130,3,0.57705003,3.89595,9.31005,1781122710708
2013239140,3,0.54105,4.0399504,9.39105,1781122710717
2013239150,3,0.49500003,4.1950502,9.469951,1781122710726
2013239160,3,0.43995002,4.368,9.637951,1781122710737
2013239170,3,0.41805002,4.58295,9.825001,1781122710747
2013239180,3,0.402,4.8250504,10.00395,1781122710758
2013239190,3,0.39495003,5.0280004,10.114051,1781122710766
2013239200,3,0.33495003,5.1340504,10.32495,1781122710778
2013239210,3,0.25995,5.16195,10.597951,1781122710788
2013239220,3,0.12900001,5.1070504,10.9480505,1781122710798
2013239230,3,-0.031050002,4.99695,11.383051,1781122710808
2013239240,3,-0.201,4.827,11.817,1781122710817
2013239250,3,-0.39495003,4.5880504,12.21405,1781122710828
2013239261,3,-0.52395004,4.28595,12.52305,1781122710838
2013239271,3,-0.59805006,3.9750001,12.622951,1781122710848
2013239281,3,-0.62895006,3.6400502,12.516001,1781122710858
2013239291,3,-0.59805006,3.3120003,12.25695,1781122710868
2013239301,3,-0.462,3.039,12.010951,1781122710878
2013239311,3,-0.32295,2.73705,11.841001,1781122710888
2013239321,3,-0.27195,2.36595,11.74695,1781122710898
2013239331,3,-0.31995,1.9729501,11.661,1781122710909
2013239341,3,-0.45900002,1.57605,11.41695,1781122710919
2013239351,3,-0.6,1.15695,10.93305,1781122710927
2013239361,3,-0.67905,0.83100003,10.332001,1781122710939
2013239371,3,-0.66300005,0.597,9.65505,1781122710949
2013239381,3,-0.58605003,0.432,9.0390005,1781122710960
2013239392,3,-0.43995002,0.37605003,8.46,1781122710970
2013239402,3,-0.25605002,0.40500003,7.9960504,1781122710979
2013239412,3,-0.078,0.50805,7.63395,1781122710989
2013239422,3,0.058950003,0.64500004,7.4710503,1781122710998
2013239432,3,0.186,0.74505,7.4400005,1781122711009
2013239442,3,0.23205002,0.79995006,7.5480003,1781122711018
2013239452,3,0.20805001,0.86505,7.7110505,1781122711029
2013239462,3,0.102000006,0.93900007,7.866,1781122711038
2013239472,3,-0.045,1.00605,8.055,1781122711049
2013239482,3,-0.25095,1.056,8.23695,1781122711059
2013239492,3,-0.483,1.092,8.424001,1781122711068
2013239502,3,-0.69900006,1.164,8.503051,1781122711079
2013239512,3,-0.83295006,1.2409501,8.500951,1781122711089
2013239522,3,-0.90000004,1.368,8.505,1781122711099
2013239533,3,-0.933,1.542,8.424001,1781122711110
2013239543,3,-0.94005007,1.77495,8.352,1781122711120
2013239553,3,-0.94305,2.06205,8.311951,1781122711130
2013239563,3,-0.93105006,2.3800502,8.326051,1781122711140
2013239573,3,-0.97905004,2.6560502,8.307,1781122711150
2013239583,3,-1.0360501,2.9839501,8.359051,1781122711160
2013239593,3,-1.1340001,3.3240001,8.41005,1781122711170
2013239603,3,-1.2400501,3.5850003,8.43795,1781122711179
2013239613,3,-1.3980001,3.7930503,8.464951,1781122711191
2013239623,3,-1.55295,4.00395,8.52705,1781122711199
2013239633,3,-1.7350501,4.2340503,8.568001,1781122711211
2013239643,3,-1.8720001,4.47795,8.55795,1781122711220
2013239653,3,-1.9770001,4.6980004,8.58195,1781122711230
2013239663,3,-2.0700002,4.8439503,8.601001,1781122711241
2013239674,3,-2.11395,4.97805,8.625,1781122711249
2013239684,3,-2.1420002,5.043,8.62005,1781122711260
2013239694,3,-2.12295,5.1049504,8.637,1781122711270
2013239704,3,-2.13,5.1220503,8.656051,1781122711280
2013239714,3,-2.1040502,5.1480002,8.644051,1781122711290
2013239724,3,-2.082,5.1340504,8.611051,1781122711300
2013239734,3,-2.04405,5.1720004,8.589001,1781122711311
2013239744,3,-2.0059502,5.24205,8.500951,1781122711322
2013239754,3,-1.9270501,5.3590503,8.553,1781122711332
2013239764,3,-1.845,5.4310503,8.529,1781122711342
2013239774,3,-1.8019501,5.4210005,8.52,1781122711351
2013239784,3,-1.7760001,5.3920503,8.503051,1781122711362
2013239794,3,-1.7689501,5.3440504,8.470051,1781122711372
2013239805,3,-1.74195,5.268,8.41005,1781122711382
2013239815,3,-1.7260501,5.18205,8.3880005,1781122711392
2013239825,3,-1.66305,5.1000004,8.39505,1781122711402
2013239835,3,-1.6110001,5.01195,8.4529505,1781122711412
2013239845,3,-1.5439501,4.9159503,8.589001,1781122711422
2013239855,3,-1.4650501,4.794,8.70405,1781122711431
2013239865,3,-1.4140501,4.71,8.932051,1781122711442
2013239875,3,-1.3810501,4.629,9.159,1781122711452
2013239885,3,-1.4290501,4.59705,9.418051,1781122711462
2013239895,3,-1.4670001,4.5540004,9.705001,1781122711472
2013239905,3,-1.50495,4.58295,10.01595,1781122711482
2013239915,3,-1.5490501,4.6189504,10.34895,1781122711491
2013239925,3,-1.608,4.7239504,10.67205,1781122711503
2013239935,3,-1.5769501,4.83195,10.974001,1781122711513
2013239946,3,-1.55595,4.9690504,11.304001,1781122711523
2013239956,3,-1.5700501,4.9999504,11.592001,1781122711533
2013239966,3,-1.6540501,5.0070004,11.874001,1781122711543
2013239976,3,-1.7539501,4.9450502,12.175951,1781122711552
2013239986,3,-1.90005,4.8030005,12.484951,1781122711563
2013239996,3,-2.07495,4.5739503,12.741,1781122711573
2013240006,3,-2.2069502,4.3050003,12.796051,1781122711583
2013240016,3,-2.2759502,4.0609503,12.67605,1781122711593
2013240026,3,-2.2120502,3.8700001,12.460951,1781122711602
2013240036,3,-2.1379502,3.6690001,12.208951,1781122711613
2013240046,3,-2.08995,3.417,11.946,1781122711623
2013240056,3,-2.08695,3.144,11.637,1781122711633
2013240066,3,-2.118,2.8210502,11.2900505,1781122711643
2013240077,3,-2.154,2.5099502,10.81305,1781122711654
2013240087,3,-2.08695,2.2339501,10.287001,1781122711664
2013240097,3,-2.0269501,1.9900501,9.66195,1781122711674
2013240107,3,-1.90005,1.8270001,9.042001,1781122711684
2013240117,3,-1.7380501,1.7080501,8.436001,1781122711694
2013240127,3,-1.572,1.6570501,7.9260006,1781122711705
2013240137,3,-1.43595,1.64505,7.5360003,1781122711714
2013240147,3,-1.31595,1.6570501,7.2169504,1781122711725
2013240157,3,-1.2610501,1.6890001,6.9919505,1781122711734
2013240167,3,-1.25205,1.75995,6.774,1781122711745
2013240177,3,-1.2420001,1.9039501,6.6240005,1781122711754
2013240187,3,-1.2780001,2.0689502,6.5350504,1781122711765
2013240197,3,-1.3120501,2.2800002,6.46995,1781122711774
2013240207,3,-1.31595,2.493,6.4459505,1781122711784
2013240218,3,-1.2589501,2.7640502,6.4129505,1781122711795
2013240228,3,-1.1920501,3.04095,6.3510003,1781122711805
2013240238,3,-1.0390501,3.3979502,6.30495,1781122711815
2013240248,3,-0.897,3.834,6.2910004,1781122711826
2013240258,3,-0.74205005,4.36005,6.2980504,1781122711835
2013240268,3,-0.64095,4.9020004,6.3889503,1781122711844
2013240278,3,-0.624,5.4,6.51105,1781122711855
2013240288,3,-0.62895006,5.80905,6.7650003,1781122711865
2013240298,3,-0.66300005,6.18195,7.122,1781122711874
2013240308,3,-0.71805006,6.63,7.557,1781122711884
2013240318,3,-0.933,6.7980003,7.9069505,1781122711895
2013240328,3,-1.182,6.6660004,8.09805,1781122711905
2013240338,3,-1.371,6.43095,8.26095,1781122711916
2013240348,3,-1.3950001,6.19395,8.359051,1781122711926
2013240359,3,-1.2420001,5.9740505,8.42595,1781122711936
2013240369,3,-0.97905004,5.82105,8.53695,1781122711944
2013240379,3,-0.69900006,5.68695,8.611051,1781122711956
2013240389,3,-0.47100002,5.4949503,8.6970005,1781122711965
2013240399,3,-0.28695002,5.256,8.83605,1781122711976
2013240409,3,-0.16905001,4.9879503,8.92695,1781122711986
2013240419,3,-0.112050004,4.7239504,9.003,1781122711997
2013240429,3,-0.094950005,4.49205,9.027,1781122712006
2013240439,3,-0.040050004,4.269,9.00105,1781122712016
2013240449,3,0.021000002,4.0609503,8.971951,1781122712026
2013240459,3,0.07395,3.9180002,8.87895,1781122712037
2013240469,3,0.19605,3.8410501,8.79,1781122712047
2013240479,3,0.31800002,3.7759502,8.71395,1781122712057
2013240490,3,0.41805002,3.76395,8.665951,1781122712067
2013240500,3,0.507,3.7500002,8.710951,1781122712077
2013240510,3,0.60300004,3.726,8.71395,1781122712087
2013240520,3,0.66495,3.7519503,8.74695,1781122712096
2013240530,3,0.73005,3.8149502,8.833051,1781122712107
2013240540,3,0.79695004,3.8790002,8.845051,1781122712118
2013240550,3,0.85395,3.9460502,8.87205,1781122712128
2013240560,3,0.88500005,3.9750001,8.89305,1781122712138
2013240570,3,0.91905004,4.02,8.889001,1781122712148
2013240580,3,0.97200006,4.0680003,8.950951,1781122712158
2013240590,3,1.0510501,4.1329503,9.02295,1781122712168
2013240600,3,1.1080501,4.269,9.15705,1781122712178
2013240610,3,1.1770501,4.43505,9.303,1781122712187
2013240620,3,1.1920501,4.5690002,9.432,1781122712196
2013240631,3,1.1220001,4.61205,9.5779505,1781122712208
2013240641,3,1.041,4.6000504,9.84405,1781122712217
2013240651,3,0.94500005,4.545,10.272,1781122712228
2013240661,3,0.864,4.46805,10.79205,1781122712238
2013240671,3,0.74205005,4.31505,11.376,1781122712248
2013240681,3,0.55695003,4.1280003,11.898001,1781122712257
2013240691,3,0.36795002,3.9150002,12.372001,1781122712267
2013240701,3,0.165,3.6780002,12.777,1781122712278
2013240711,3,-0.033,3.453,12.87705,1781122712288
2013240721,3,-0.124050006,3.1560001,12.8220005,1781122712297
2013240731,3,-0.076050006,2.9890501,12.649951,1781122712307
2013240741,3,0.055050004,2.84295,12.51105,1781122712318
2013240751,3,0.141,2.66295,12.432,1781122712327
2013240762,3,0.16005,2.40405,12.304951,1781122712339
2013240772,3,0.081,2.088,12.07995,1781122712347
2013240782,3,0.03795,1.7629501,11.701951,1781122712359
2013240792,3,0.033,1.42005,11.10105,1781122712369
2013240802,3,0.08595,1.12605,10.390051,1781122712379
2013240812,3,0.21495001,0.92700005,9.61905,1781122712388
2013240822,3,0.36105,0.81495005,8.901,1781122712399
2013240832,3,0.54495,0.79305005,8.3550005,1781122712409
2013240842,3,0.69900006,0.82695,7.9570503,1781122712419
2013240852,3,0.80595005,0.91800004,7.7179503,1781122712429
2013240862,3,0.81795,0.96495,7.5880504,1781122712439
2013240872,3,0.76095,1.0129501,7.6150503,1781122712449
2013240882,3,0.675,1.0540501,7.7059503,1781122712460
2013240892,3,0.53595,1.059,7.8420005,1781122712470
2013240903,3,0.40395,1.06095,8.043,1781122712480
2013240913,3,0.18900001,1.02495,8.27295,1781122712490
2013240923,3,-0.08295,1.011,8.464951,1781122712500
2013240933,3,-0.31305,0.9889501,8.60595,1781122712510
2013240943,3,-0.531,1.00905,8.65905,1781122712519
2013240953,3,-0.73695004,1.07295,8.68995,1781122712530
2013240963,3,-0.933,1.18095,8.644051,1781122712541
2013240973,3,-1.08405,1.3270501,8.641951,1781122712550
2013240983,3,-1.21305,1.53495,8.644051,1781122712559
2013240993,3,-1.36905,1.794,8.71605,1781122712571
2013241003,3,-1.4959501,2.02395,8.75205,1781122712582
2013241013,3,-1.644,2.3110502,8.71605,1781122712591
2013241023,3,-1.7659501,2.601,8.629951,1781122712601
2013241034,3,-1.89795,2.9260502,8.51295,1781122712611
2013241044,3,-1.9960501,3.2950501,8.311951,1781122712620
2013241054,3,-2.04405,3.7500002,8.082001,1781122712631
2013241064,3,-2.12295,4.18305,7.8930006,1781122712641
2013241074,3,-2.1730502,4.6069503,7.7029505,1781122712651
2013241084,3,-2.18295,4.96395,7.4659505,1781122712661
2013241094,3,-2.14695,5.29395,7.3009505,1781122712671
2013241104,3,-2.1330001,5.565,7.1290503,1781122712682
2013241114,3,-2.0629501,5.7850504,6.98505,1781122712691
2013241124,3,-2.0059502,5.9689503,6.8869505,1781122712700
2013241134,3,-1.9480501,6.135,6.9540005,1781122712711
2013241144,3,-1.9390501,6.2689505,7.011,1781122712721
2013241154,3,-1.98195,6.3240004,7.1620502,1781122712731
2013241164,3,-2.049,6.3360004,7.38,1781122712742
2013241175,3,-2.1090002,6.28095,7.56195,1781122712752
2013241185,3,-2.1349502,6.22095,7.7370005,1781122712762
2013241195,3,-2.1780002,6.1320004,7.8540006,1781122712772
2013241205,3,-2.18295,6.051,8.070001,1781122712782
2013241215,3,-2.14695,5.92605,8.259001,1781122712792
2013241225,3,-2.12295,5.8039503,8.38605,1781122712802
2013241235,3,-2.1019502,5.649,8.553,1781122712812
2013241245,3,-2.08995,5.4760504,8.674951,1781122712822
2013241255,3,-2.08005,5.32095,8.812051,1781122712832
2013241265,3,-2.09205,5.1070504,8.97,1781122712842
2013241275,3,-2.0730002,4.9159503,9.142051,1781122712852
2013241285,3,-2.04195,4.7119503,9.360001,1781122712863
2013241295,3,-1.98705,4.5690002,9.583051,1781122712873
2013241305,3,-1.9390501,4.46295,9.814951,1781122712881
2013241316,3,-1.881,4.3840504,10.03995,1781122712893
2013241326,3,-1.8499501,4.38,10.284,1781122712903
2013241336,3,-1.77795,4.42995,10.46205,1781122712913
2013241346,3,-1.6990501,4.56405,10.63395,1781122712923
2013241356,3,-1.60395,4.6810503,10.857,1781122712933
2013241366,3,-1.539,4.81995,11.16495,1781122712944
2013241376,3,-1.5769501,4.899,11.527051,1781122712953
2013241386,3,-1.728,4.93305,11.90295,1781122712963
2013241396,3,-1.9099501,4.92105,12.23595,1781122712974
2013241406,3,-2.0730002,4.88205,12.460951,1781122712983
2013241416,3,-2.19705,4.815,12.573001,1781122712994
2013241426,3,-2.32395,4.7200503,12.549001,1781122713004
2013241436,3,-2.4100502,4.5810003,12.4459505,1781122713014
2013241447,3,-2.4460502,4.4230504,12.328951,1781122713024
2013241457,3,-2.4510002,4.2499504,12.25695,1781122713034
2013241467,3,-2.4769502,3.9940503,12.21195,1781122713044
2013241477,3,-2.5470002,3.66405,12.09195,1781122713054
2013241487,3,-2.628,3.2710502,11.874001,1781122713064
2013241497,3,-2.6430001,2.89995,11.629951,1781122713074
2013241507,3,-2.63595,2.5069501,11.27805,1781122713084
2013241517,3,-2.5489502,2.196,10.78005,1781122713094
2013241527,3,-2.42205,1.9399501,10.122001,1781122713103
2013241537,3,-2.25,1.746,9.463051,1781122713114
2013241547,3,-2.0389502,1.6000501,8.812051,1781122713125
2013241557,3,-1.8360001,1.4629501,8.331,1781122713135
2013241567,3,-1.6510501,1.3560001,7.8520503,1781122713145
2013241577,3,-1.52205,1.2720001,7.6000504,1781122713153
2013241588,3,-1.422,1.1520001,7.35405,1781122713165
2013241598,3,-1.3789501,1.0210501,7.1580005,1781122713175
2013241608,3,-1.40505,0.93900007,7.0189505,1781122713185
2013241618,3,-1.4479501,0.906,6.9210005,1781122713194
2013241628,3,-1.5079501,0.975,6.885,1781122713205
2013241638,3,-1.60395,1.0999501,6.95205,1781122713214
2013241648,3,-1.728,1.21695,7.0069504,1781122713225
2013241658,3,-1.8070501,1.389,7.0350003,1781122713234
2013241668,3,-1.8240001,1.64295,6.9559503,1781122713245
2013241678,3,-1.7899501,1.9810501,6.8650503,1781122713254
2013241688,3,-1.7209501,2.433,6.7890005,1781122713264
2013241698,3,-1.623,3.0030003,6.58995,1781122713275
2013241708,3,-1.455,3.63,6.46995,1781122713284
2013241719,3,-1.2400501,4.37505,6.42705,1781122713295
2013241729,3,-0.97905004,5.18205,6.4009504,1781122713304
2013241739,3,-0.69600004,5.9670005,6.5059505,1781122713315
2013241749,3,-0.51405,6.6330004,6.636,1781122713326
2013241759,3,-0.351,7.7389503,6.978,1781122713336
2013241769,3,-0.39900002,8.212951,7.29195,1781122713346
2013241779,3,-0.59595,8.136001,7.6990504,1781122713356
2013241789,3,-0.79905003,7.8850503,8.06505,1781122713366
2013241799,3,-0.98595005,7.5379505,8.25195,1781122713377
2013241809,3,-1.12695,7.03695,8.3550005,1781122713386
2013241819,3,-1.1770501,6.51,8.44995,1781122713397
2013241829,3,-0.97200006,5.979,8.56095,1781122713406
2013241839,3,-0.65295005,5.5189505,8.72295,1781122713417
2013241849,3,-0.28395,5.2249503,8.818951,1781122713427
2013241860,3,0.040050004,4.9230003,8.932051,1781122713437
2013241870,3,0.28695002,4.5349503,9.099,1781122713447
2013241880,3,0.45405003,4.12095,9.274051,1781122713457
2013241890,3,0.58095,3.69495,9.406051,1781122713467
2013241900,3,0.675,3.31395,9.528001,1781122713477
2013241910,3,0.73695004,2.97195,9.595051,1781122713486
2013241920,3,0.86895007,2.6920502,9.489,1781122713498
2013241930,3,1.0189501,2.50305,9.4150505,1781122713506
2013241940,3,1.20105,2.35905,9.331051,1781122713518
2013241950,3,1.386,2.325,9.286051,1781122713528
2013241960,3,1.5630001,2.3370001,9.324,1781122713538
2013241970,3,1.6680001,2.4139502,9.439051,1781122713549
2013241980,3,1.7310001,2.505,9.6,1781122713557
2013241990,3,1.74195,2.64105,9.75,1781122713568
2013242001,3,1.7190001,2.7850502,9.8560505,1781122713579
2013242011,3,1.7310001,2.91405,9.95895,1781122713589
2013242021,3,1.7040001,3.08205,10.011001,1781122713598
2013242031,3,1.6990501,3.2640002,10.00395,1781122713608
2013242041,3,1.71105,3.48705,10.002001,1781122713617
2013242051,3,1.7230501,3.7429502,10.02795,1781122713629
2013242061,3,1.7160001,3.96495,10.155001,1781122713639
2013242071,3,1.6540501,4.0609503,10.31505,1781122713648
2013242081,3,1.5460501,4.1020503,10.45005,1781122713659
2013242091,3,1.4290501,4.10895,10.64295,1781122713669
2013242101,3,1.314,4.131,10.9140005,1781122713679
2013242111,3,1.1700001,4.07805,11.368951,1781122713687
2013242121,3,0.94995004,3.9490502,11.778001,1781122713698
2013242132,3,0.67905,3.7360501,12.16905,1781122713709
2013242142,3,0.39195,3.4840503,12.640051,1781122713717
2013242152,3,0.11400001,3.2760003,12.904051,1781122713729
2013242162,3,-0.102000006,3.0940502,12.946951,1781122713739
2013242172,3,-0.23700002,2.9260502,12.745951,1781122713749
2013242182,3,-0.24405001,2.799,12.432,1781122713758
2013242192,3,-0.186,2.66505,12.07005,1781122713769
2013242202,3,-0.04695,2.55795,11.78295,1781122713779
2013242212,3,0.079050004,2.457,11.484,1781122713789
2013242222,3,0.162,2.29695,11.07705,1781122713799
2013242232,3,0.21300001,2.12205,10.62405,1781122713810
2013242242,3,0.24900001,1.9300501,10.11705,1781122713819
2013242252,3,0.246,1.7200501,9.613951,1781122713830
2013242262,3,0.23400001,1.50405,9.078,1781122713840
2013242273,3,0.22200002,1.3750501,8.592,1781122713850
