icm4n607_acc,iven_sense,2026-06-11_17-12-13.502_Active 10 Pro
imuTimestamp,accuracy(more=better),acc_x[m/s^2],acc_y[m/s^2],acc_z[m/s^2],utcTimestamp(millis)
2077665120,3,-2.39595,3.357,9.240001,1781187136696
2077665130,3,-2.4460502,3.5700002,9.018001,1781187136707
2077665140,3,-2.4490502,3.7189503,8.88105,1781187136717
2077665150,3,-2.43705,3.65895,8.90295,1781187136727
2077665160,3,-2.3719501,3.4699502,9.130051,1781187136737
2077665170,3,-2.3100002,3.24195,9.312,1781187136747
2077665180,3,-2.2759502,3.1030502,9.35505,1781187136757
2077665190,3,-2.2789502,3.144,9.247951,1781187136766
2077665200,3,-2.32905,3.28095,9.066,1781187136777
2077665211,3,-2.36505,3.4669502,8.88405,1781187136786
2077665221,3,-2.39805,3.5749502,8.86005,1781187136798
2077665231,3,-2.394,3.5490003,9.03195,1781187136808
2077665241,3,-2.3790002,3.4360502,9.259951,1781187136817
2077665251,3,-2.3770502,3.35205,9.37905,1781187136828
2077665261,3,-2.394,3.3330002,9.348001,1781187136838
2077665271,3,-2.38695,3.348,9.23295,1781187136848
2077665281,3,-2.367,3.3360002,9.109051,1781187136858
2077665291,3,-2.3170502,3.3289502,9.03495,1781187136868
2077665301,3,-2.3070002,3.35205,8.944051,1781187136878
2077665311,3,-2.3359501,3.417,8.87895,1781187136888
2077665321,3,-2.3749502,3.5149503,8.86695,1781187136898
2077665331,3,-2.391,3.62295,8.93595,1781187136909
2077665342,3,-2.4490502,3.6109502,9.03495,1781187136918
2077665352,3,-2.47305,3.4720502,9.219001,1781187136929
2077665362,3,-2.466,3.2899501,9.3820505,1781187136939
2077665372,3,-2.43195,3.1990502,9.406051,1781187136950
2077665382,3,-2.3820002,3.17805,9.315001,1781187136959
2077665392,3,-2.35305,3.25005,9.111,1781187136969
2077665402,3,-2.3389502,3.3930001,8.889001,1781187136979
2077665412,3,-2.3389502,3.4840503,8.73795,1781187136990
2077665422,3,-2.3149502,3.52005,8.628,1781187136999
2077665432,3,-2.298,3.45795,8.580001,1781187137010
2077665442,3,-2.226,3.3979502,8.644051,1781187137021
2077665452,3,-2.181,3.3450003,8.68305,1781187137031
2077665462,3,-2.181,3.3000002,8.65905,1781187137041
2077665473,3,-2.19495,3.3090003,8.652,1781187137051
2077665483,3,-2.22795,3.3760502,8.641951,1781187137061
2077665493,3,-2.3029501,3.4630501,8.644051,1781187137071
2077665503,3,-2.38695,3.52005,8.69205,1781187137080
2077665513,3,-2.43705,3.4770002,9.04395,1781187137091
2077665523,3,-2.45595,3.3670502,9.348001,1781187137101
2077665533,3,-2.52495,3.21795,9.540001,1781187137111
2077665543,3,-2.571,3.1729503,9.55395,1781187137121
2077665553,3,-2.628,3.31695,9.44205,1781187137131
2077665563,3,-2.6830502,3.5130002,9.304951,1781187137141
2077665573,3,-2.6950502,3.66105,9.147,1781187137151
2077665583,3,-2.676,3.63,9.09405,1781187137162
2077665593,3,-2.6089501,3.4720502,9.20895,1781187137171
2077665604,3,-2.5540502,3.288,9.315001,1781187137182
2077665614,3,-2.53305,3.216,9.372001,1781187137192
2077665624,3,-2.53005,3.2040002,9.37695,1781187137202
2077665634,3,-2.52495,3.24705,9.339001,1781187137212
2077665644,3,-2.523,3.321,9.22605,1781187137222
2077665654,3,-2.5420501,3.4339502,9.06795,1781187137232
2077665664,3,-2.559,3.5130002,8.946,1781187137242
2077665674,3,-2.53305,3.5149503,8.89305,1781187137250
2077665684,3,-2.499,3.3979502,8.965051,1781187137262
2077665694,3,-2.46795,3.2590501,9.118051,1781187137273
2077665704,3,-2.45595,3.1609502,9.243,1781187137282
2077665714,3,-2.4540002,3.1249502,9.21195,1781187137293
2077665724,3,-2.4460502,3.1270502,9.139951,1781187137302
2077665735,3,-2.4420002,3.11505,9.07005,1781187137313
2077665745,3,-2.47005,3.1560001,9.01095,1781187137323
2077665755,3,-2.53005,3.1969502,9.030001,1781187137333
2077665765,3,-2.5879502,3.2209501,9.085051,1781187137343
2077665775,3,-2.607,3.20895,9.151951,1781187137353
2077665785,3,-2.6209502,3.1750503,9.150001,1781187137363
2077665795,3,-2.6860502,3.14895,9.151951,1781187137373
2077665805,3,-2.7769501,3.1729503,9.121051,1781187137383
2077665815,3,-2.88,3.21405,9.1710005,1781187137393
2077665825,3,-2.9250002,3.2640002,9.23595,1781187137403
2077665835,3,-2.8960502,3.3000002,9.22395,1781187137414
2077665845,3,-2.8150501,3.2730002,9.17595,1781187137424
2077665855,3,-2.7220502,3.2380502,9.066,1781187137432
2077665865,3,-2.6209502,3.1729503,8.87895,1781187137445
2077665876,3,-2.5210502,3.1660502,8.7310505,1781187137454
2077665886,3,-2.499,3.2280002,8.544001,1781187137462
2077665896,3,-2.466,3.3379502,8.42205,1781187137474
2077665906,3,-2.36505,3.4480503,8.42595,1781187137484
2077665916,3,-2.2480502,3.5059502,8.47395,1781187137494
2077665926,3,-2.2020001,3.4309502,8.60595,1781187137504
2077665936,3,-2.181,3.3019502,8.92695,1781187137514
2077665946,3,-2.2020001,3.147,9.384001,1781187137524
2077665956,3,-2.3119502,2.9239502,9.766951,1781187137537
2077665966,3,-2.367,2.7469501,9.96405,1781187137545
2077665976,3,-2.466,2.6920502,9.949051,1781187137556
2077665986,3,-2.5780501,2.7130501,9.86505,1781187137564
2077665996,3,-2.6880002,2.7490501,9.760051,1781187137575
2077666007,3,-2.7499502,2.7900002,9.760051,1781187137584
2077666017,3,-2.8129501,2.7490501,9.97305,1781187137594
2077666027,3,-2.7889502,2.5819502,10.46205,1781187137605
2077666037,3,-2.76495,2.32095,10.93095,1781187137615
2077666047,3,-2.77005,2.0689502,11.235001,1781187137625
2077666057,3,-2.8459501,1.8700501,11.023951,1781187137635
2077666067,3,-2.8819501,2.0740502,10.797001,1781187137650
2077666077,3,-3.0930002,2.26305,10.375051,1781187137654
2077666087,3,-3.2989502,2.3470502,10.240951,1781187137666
2077666097,3,-3.35595,2.3370001,10.476001,1781187137674
2077666107,3,-3.2989502,2.2459502,10.870951,1781187137684
2077666117,3,-3.14805,2.16,11.182051,1781187137695
2077666127,3,-2.8960502,2.18895,11.31105,1781187137704
2077666138,3,-2.7169502,2.2339501,11.083951,1781187137714
2077666148,3,-2.6260502,2.32095,10.62405,1781187137724
2077666158,3,-2.6550002,2.388,10.15005,1781187137736
2077666168,3,-2.69805,2.4070501,9.774,1781187137745
2077666178,3,-2.67405,2.421,9.645,1781187137755
2077666188,3,-2.6239502,2.39205,9.50895,1781187137765
2077666198,3,-2.568,2.3370001,9.35805,1781187137775
2077666208,3,-2.47005,2.3470502,9.34305,1781187137786
2077666218,3,-2.355,2.45895,9.20505,1781187137795
2077666228,3,-2.2720501,2.5069501,9.087001,1781187137805
2077666238,3,-2.1420002,2.4790502,9.1039505,1781187137815
2077666248,3,-2.02005,2.4810002,8.938951,1781187137825
2077666258,3,-1.932,2.46195,8.742001,1781187137837
2077666269,3,-1.89795,2.5170002,8.53905,1781187137845
2077666279,3,-1.8600001,2.673,8.224951,1781187137855
2077666289,3,-1.8190501,2.87595,7.9810505,1781187137865
2077666299,3,-1.8600001,3.0630002,7.8900003,1781187137876
2077666309,3,-1.86705,3.1369503,7.9549503,1781187137887
2077666319,3,-1.8690001,3.1420503,7.9999504,1781187137895
2077666329,3,-1.8690001,3.14895,7.8970504,1781187137907
2077666339,3,-1.845,3.1350002,7.87095,1781187137916
2077666349,3,-1.881,3.18195,7.9480505,1781187137926
2077666359,3,-1.9750501,3.288,7.9090505,1781187137937
2077666369,3,-2.01795,3.42195,7.8690004,1781187137948
2077666379,3,-2.0299501,3.6109502,7.6789503,1781187137958
2077666389,3,-2.0370002,3.69495,7.4400005,1781187137968
2077666399,3,-2.0659502,3.561,7.48995,1781187137977
2077666410,3,-2.05395,3.3979502,7.5790505,1781187137988
2077666420,3,-2.04405,3.2899501,7.7110505,1781187137998
2077666430,3,-2.01105,3.38805,7.79895,1781187138008
2077666440,3,-1.9939501,3.5080502,7.8349504,1781187138018
2077666450,3,-1.9560001,3.58995,7.8109503,1781187138028
2077666460,3,-1.9080001,3.6330001,7.6080003,1781187138037
2077666470,3,-1.9459502,3.8100002,7.4880004,1781187138048
2077666480,3,-3.0330002,5.21505,7.2370505,1781187138059
2077666490,3,-3.627,5.79195,8.05305,1781187138069
2077666500,3,-3.6510003,5.2390504,9.04395,1781187138078
2077666510,3,-3.0900002,3.93405,10.14795,1781187138087
2077666520,3,-2.2669501,2.7829502,10.02105,1781187138099
2077666530,3,-1.5460501,2.4,9.52995,1781187138109
2077666541,3,-1.1770501,1.9350001,9.81,1781187138119
2077666551,3,-1.04595,1.6000501,10.26,1781187138129
2077666561,3,-1.3429501,1.7700001,10.971001,1781187138138
2077666571,3,-1.3789501,2.3419502,9.468,1781187138149
2077666581,3,-1.14405,3.0010502,7.3680005,1781187138159
2077666591,3,-0.96195006,3.3430502,7.6120505,1781187138169
2077666601,3,-0.93105006,3.5440502,8.629951,1781187138179
2077666611,3,-1.3230001,3.9460502,9.054001,1781187138189
2077666621,3,-1.6129501,4.3170004,7.9930506,1781187138199
2077666631,3,-1.8739501,3.798,8.39505,1781187138209
2077666641,3,-2.01105,2.50005,10.47795,1781187138220
2077666651,3,-1.9459502,1.88205,11.16495,1781187138230
2077666661,3,-1.8840001,2.397,11.259001,1781187138240
2077666672,3,-2.04405,3.2970002,10.75605,1781187138250
2077666682,3,-1.9909501,3.8070002,10.548,1781187138260
2077666692,3,-1.845,3.9409502,9.99705,1781187138270
2077666702,3,-1.6969501,3.89595,9.636001,1781187138280
2077666712,3,-1.7260501,3.795,10.12905,1781187138290
2077666722,3,-1.4809501,3.6799502,9.457951,1781187138300
2077666732,3,-1.371,3.73095,9.39105,1781187138310
2077666742,3,-1.2559501,4.131,9.858001,1781187138320
2077666752,3,-0.96405005,4.5090003,10.39395,1781187138330
2077666762,3,-0.93795,4.5540004,10.43295,1781187138340
2077666772,3,-0.9979501,4.56405,9.645,1781187138350
2077666782,3,-0.897,4.67205,9.56805,1781187138360
2077666792,3,-1.1730001,4.65,9.271951,1781187138370
2077666803,3,-1.4260501,4.224,8.87895,1781187138381
2077666813,3,-1.01505,4.0680003,8.521951,1781187138391
2077666823,3,-0.75600004,4.0350003,8.127001,1781187138401
2077666833,3,-0.73200005,3.9529502,8.331,1781187138411
2077666843,3,-0.85395,3.93195,8.508,1781187138421
2077666853,3,-1.0890001,4.08795,8.698951,1781187138431
2077666863,3,-1.335,4.15905,8.814,1781187138442
2077666873,3,-1.5630001,4.1779504,8.68305,1781187138451
2077666883,3,-1.623,4.2120004,8.757,1781187138462
2077666893,3,-1.7539501,4.3840504,8.635051,1781187138473
2077666903,3,-1.82895,4.4539504,8.508,1781187138481
2077666913,3,-1.7500501,4.506,8.67105,1781187138490
2077666923,3,-1.6350001,4.53795,8.54895,1781187138502
2077666934,3,-1.5409501,4.64295,8.43795,1781187138510
2077666944,3,-1.3759501,4.806,8.20605,1781187138521
2077666954,3,-1.077,4.78905,8.328,1781187138532
2077666964,3,-0.92100006,4.971,8.745001,1781187138542
2077666974,3,-0.82095003,5.40705,8.680051,1781187138552
2077666984,3,-0.61995006,5.7730503,8.54895,1781187138563
2077666994,3,-0.43800002,6.0270004,8.65905,1781187138573
2077667004,3,-0.18105,6.2449503,8.677951,1781187138583
2077667014,3,0.064050004,6.063,8.403001,1781187138592
2077667024,3,0.25305,5.94495,8.2900505,1781187138602
2077667034,3,0.44700003,5.8380003,8.311951,1781187138613
2077667044,3,0.62205005,5.75895,8.187,1781187138623
2077667054,3,0.91200006,5.8159504,7.9519506,1781187138633
2077667064,3,1.1370001,5.8639503,7.7539506,1781187138643
2077667075,3,1.335,5.8830004,7.4760003,1781187138653
2077667085,3,1.67295,6.0049505,7.392,1781187138663
2077667095,3,1.9699501,6.084,7.1070004,1781187138673
2077667105,3,2.0629501,5.9880004,7.1310005,1781187138684
2077667115,3,2.23305,5.8039503,7.1410503,1781187138693
2077667125,3,2.391,5.74695,6.8770504,1781187138703
2077667135,3,2.66205,5.814,6.5850005,1781187138714
2077667145,3,2.841,6.0340505,6.5160003,1781187138724
2077667155,3,2.8849502,6.15105,6.6670504,1781187138733
2077667165,3,2.77905,6.08895,6.8370004,1781187138744
2077667175,3,2.5900502,5.9430003,6.813,1781187138754
2077667185,3,2.20005,5.61705,7.3080006,1781187138764
2077667195,3,1.5990001,5.67495,7.155,1781187138774
2077667206,3,0.957,5.47095,7.4760003,1781187138784
2077667216,3,0.79005,5.7709503,8.082001,1781187138795
2077667226,3,0.74205005,6.7000504,7.9399505,1781187138804
2077667236,3,1.065,7.176,8.043,1781187138814
2077667246,3,1.194,7.4389505,8.151,1781187138824
2077667256,3,1.503,7.3890004,7.5090003,1781187138834
2077667266,3,1.9240501,7.22205,7.0620003,1781187138844
2077667276,3,2.28795,6.8290505,6.5470505,1781187138854
2077667286,3,2.45805,6.43095,6.195,1781187138864
2077667296,3,2.4750001,6.11805,6.15,1781187138874
2077667306,3,2.181,6.14895,6.11595,1781187138884
2077667316,3,1.845,6.5460005,6.3840003,1781187138894
2077667326,3,1.6680001,6.7429504,7.0740004,1781187138904
2077667337,3,1.8100501,6.6589503,7.25295,1781187138915
2077667347,3,2.0059502,6.6540003,7.0020003,1781187138924
2077667357,3,2.05395,6.57495,6.63105,1781187138934
2077667367,3,1.9440001,6.7210503,6.4819503,1781187138945
2077667377,3,1.82895,7.0630503,5.89305,1781187138955
2077667387,3,2.07495,7.1449504,5.4859505,1781187138964
2077667397,3,2.63295,6.9750004,5.13,1781187138974
2077667407,3,2.8819501,6.9990005,4.5220504,1781187138984
2077667417,3,2.8200002,7.4130006,3.6019502,1781187138994
2077667427,3,2.6950502,7.9800005,2.5489502,1781187139005
2077667437,3,1.8259501,8.17695,1.2390001,1781187139015
2077667447,3,1.51005,7.2310505,4.36095,1781187139025
2077667457,3,0.90195006,8.115001,5.7190504,1781187139035
2077667468,3,0.26505002,8.536051,5.2039504,1781187139045
2077667478,3,0.44505003,7.7629504,4.6009502,1781187139054
2077667488,3,1.0699501,7.3939505,4.92105,1781187139065
2077667498,3,1.0530001,7.4560504,5.0170503,1781187139074
2077667508,3,1.1340001,7.5400505,5.103,1781187139086
2077667518,3,1.24695,7.5109506,4.821,1781187139094
2077667528,3,1.28505,7.7239504,4.71105,1781187139105
2077667538,3,1.27995,7.9450502,4.78695,1781187139115
2077667548,3,1.5150001,7.9110003,5.21595,1781187139125
2077667558,3,1.6900501,8.28195,6.0079503,1781187139136
2077667568,3,1.7260501,8.60295,5.9989505,1781187139145
2077667578,3,2.3029501,8.07405,4.76805,1781187139155
2077667588,3,2.49405,8.239051,3.6790502,1781187139165
2077667599,3,2.358,8.802,3.00795,1781187139176
2077667609,3,2.286,9.217951,1.8400501,1781187139186
2077667619,3,2.3430002,9.39105,0.70995003,1781187139195
2077667629,3,2.5759501,9.58005,0.09705,1781187139209
2077667639,3,2.7150002,9.8550005,-0.28995,1781187139218
2077667649,3,2.88,10.126051,-0.57495004,1781187139230
2077667659,3,2.90595,10.594951,-0.78795004,1781187139237
2077667669,3,3.0310502,10.767,-1.1730001,1781187139248
2077667679,3,3.114,10.651951,-1.53495,1781187139256
2077667689,3,3.1189501,10.377001,-1.5850501,1781187139267
2077667699,3,3.1050003,9.972,-1.422,1781187139277
2077667709,3,3.2010002,9.57495,-0.90300006,1781187139287
2077667719,3,3.315,9.41895,-0.23205002,1781187139298
2077667729,3,3.2700002,9.55605,-0.15105,1781187139308
2077667740,3,3.1650002,9.558001,-0.096,1781187139318
2077667750,3,3.1720502,9.490951,-0.048,1781187139328
2077667760,3,2.8849502,9.015,-0.39795002,1781187139337
2077667770,3,2.94705,8.17695,-0.82905006,1781187139348
2077667780,3,2.83905,7.4680505,-0.711,1781187139358
2077667790,3,2.83395,7.1640005,-0.18900001,1781187139368
2077667800,3,2.7910502,7.4029503,0.45405003,1781187139378
2077667810,3,2.7,8.023951,1.1190001,1781187139387
2077667820,3,2.67405,8.59095,1.4860501,1781187139398
2077667830,3,2.8270502,8.919001,1.4860501,1781187139408
2077667840,3,2.8510501,9.216001,0.95895004,1781187139418
2077667850,3,3.0210001,8.90505,0.291,1781187139428
2077667860,3,3.34905,8.517,-0.23205002,1781187139437
2077667871,3,3.6169503,8.280001,-0.51495004,1781187139449
2077667881,3,3.8710501,8.20995,-0.702,1781187139458
2077667891,3,3.9019501,8.43795,-0.78795004,1781187139469
2077667901,3,3.6079502,9.24495,-0.69705003,1781187139478
2077667911,3,3.3990002,9.999001,-0.81405,1781187139489
2077667921,3,3.55695,10.18095,-1.2019501,1781187139499
2077667931,3,3.7489502,10.18095,-1.6519501,1781187139509
2077667941,3,3.9240003,9.89805,-2.2120502,1781187139519
2077667951,3,3.9480002,10.20495,-2.2339501,1781187139529
2077667961,3,3.72495,10.8490505,-2.0640001,1781187139540
2077667971,3,3.45195,11.413951,-1.82895,1781187139549
2077667981,3,3.3349502,11.413951,-1.63995,1781187139560
2077667991,3,3.3439503,10.903951,-1.8319501,1781187139571
2077668002,3,3.4470003,9.975,-2.13105,1781187139580
2077668012,3,3.4810503,9.54405,-2.0059502,1781187139590
2077668022,3,3.28695,10.255051,-1.6159501,1781187139600
2077668032,3,2.9970002,11.328,-1.2570001,1781187139610
2077668042,3,3.0040503,12.028951,-1.1370001,1781187139620
2077668052,3,3.114,12.42405,-1.245,1781187139630
2077668062,3,3.0570002,12.346951,-1.56105,1781187139640
2077668072,3,2.94,11.845051,-2.028,1781187139650
2077668082,3,2.80305,11.007001,-2.46405,1781187139660
2077668092,3,2.60205,9.92895,-2.8129501,1781187139670
2077668102,3,2.21895,9.040951,-2.8609502,1781187139680
2077668112,3,1.83105,8.6629505,-2.56395,1781187139690
2077668122,3,1.419,8.698951,-2.16405,1781187139701
2077668133,3,0.85695004,9.1390505,-1.4080501,1781187139711
2077668143,3,0.44700003,9.714001,-0.98205006,1781187139721
2077668153,3,0.351,10.786051,-0.84495,1781187139731
2077668163,3,0.61695004,11.98095,-1.113,1781187139741
2077668173,3,1.10595,12.496051,-1.87995,1781187139750
2077668183,3,1.6300501,12.652051,-2.1690001,1781187139761
2077668193,3,1.8720001,12.89805,-2.02095,1781187139771
2077668203,3,1.7070001,12.960001,-1.54005,1781187139782
2077668213,3,1.4580001,12.936001,-0.9990001,1781187139791
2077668223,3,1.2420001,12.927001,-0.48105,1781187139802
2077668233,3,1.2420001,12.747001,-0.097950004,1781187139811
2077668243,3,1.43805,12.39105,0.094950005,1781187139822
2077668253,3,1.5460501,12.240001,0.23295002,1781187139832
2077668264,3,1.419,12.373951,0.31995,1781187139841
2077668274,3,1.4620501,12.40305,0.16605,1781187139852
2077668284,3,1.4310001,12.541051,-0.10095,1781187139862
2077668294,3,1.31595,12.727951,-0.31605002,1781187139872
2077668304,3,1.386,12.472051,-0.9670501,1781187139882
2077668314,3,1.5820501,11.919001,-1.79295,1781187139892
2077668324,3,1.848,11.265,-2.334,1781187139902
2077668334,3,1.9600501,10.738951,-2.87595,1781187139912
2077668344,3,1.9009501,10.627951,-2.90895,1781187139922
2077668354,3,1.9270501,10.429951,-2.6550002,1781187139931
2077668364,3,1.968,10.19505,-2.39205,1781187139942
2077668374,3,1.968,10.066051,-1.9440001,1781187139953
2077668384,3,1.89795,10.012951,-1.3789501,1781187139963
2077668394,3,1.86195,9.86505,-0.80700004,1781187139972
2077668405,3,1.98705,9.43605,-0.49095002,1781187139983
2077668415,3,2.14995,8.845051,-0.30705002,1781187139993
2077668425,3,2.38905,8.12205,-0.07395,1781187140003
2077668435,3,2.595,7.35795,0.00795,1781187140013
2077668445,3,2.6190002,6.70695,-0.031050002,1781187140023
2077668455,3,2.6160002,6.1369505,-0.156,1781187140033
2077668465,3,2.5849502,5.6599503,-0.31905,1781187140043
2077668475,3,2.499,5.3640003,-0.28695002,1781187140053
2077668485,3,2.286,5.27505,-0.25905,1781187140063
2077668495,3,1.9650002,5.3640003,-0.39495003,1781187140074
2077668505,3,1.67295,5.5459504,-0.76605004,1781187140083
2077668515,3,1.5130501,5.76795,-1.2859501,1781187140094
2077668525,3,1.71105,5.98395,-1.7890501,1781187140104
2077668536,3,1.8600001,6.5680504,-2.0760002,1781187140114
2077668546,3,1.98405,7.4059505,-2.0970001,1781187140124
2077668556,3,2.1450002,8.328,-1.8360001,1781187140134
2077668566,3,2.3700001,9.087001,-1.6140001,1781187140144
2077668576,3,2.6119502,9.38805,-1.6860001,1781187140154
2077668586,3,2.7580502,9.360001,-1.72395,1781187140164
2077668596,3,2.8510501,9.25695,-1.7070001,1781187140175
2077668606,3,2.71005,9.537001,-1.5490501,1781187140184
2077668616,3,2.322,9.82905,-1.4269501,1781187140195
2077668626,3,2.0970001,9.931951,-1.4389501,1781187140204
2077668636,3,2.0389502,9.783,-1.45605,1781187140214
2077668646,3,2.07495,9.276,-1.4269501,1781187140224
2077668656,3,2.14695,8.67,-1.338,1781187140234
2077668667,3,2.04195,8.20995,-1.10595,1781187140245
2077668677,3,1.79295,8.10495,-0.44505003,1781187140255
2077668687,3,1.644,8.215051,0.32895002,1781187140264
2077668697,3,1.5270001,8.34195,0.6,1781187140275
2077668707,3,1.4070001,8.45205,0.62895006,1781187140285
2077668717,3,1.58895,8.514,0.43005002,1781187140295
2077668727,3,1.8000001,8.67,0.33405003,1781187140305
2077668737,3,1.9030501,9.24495,0.22395001,1781187140315
2077668747,3,1.9630501,9.61305,0.303,1781187140325
2077668757,3,1.8910501,9.735001,0.19305001,1781187140335
2077668767,3,1.7160001,9.56295,-0.028950002,1781187140344
2077668777,3,1.4670001,9.40695,-0.28305,1781187140355
2077668787,3,1.2060001,8.91405,-1.161,1781187140365
2077668798,3,1.10595,8.352,-1.84395,1781187140375
2077668808,3,1.01505,7.9800005,-1.983,1781187140385
2077668818,3,0.86100006,8.10705,-1.6380001,1781187140395
2077668828,3,0.651,8.79195,-1.5109501,1781187140406
2077668838,3,0.53595,9.316051,-1.5439501,1781187140416
2077668848,3,0.54105,9.55095,-1.5439501,1781187140425
2077668858,3,0.68205005,9.63195,-1.83405,1781187140437
2077668868,3,0.804,9.44295,-2.04705,1781187140445
2077668878,3,0.97905004,9.084001,-2.25795,1781187140455
2077668888,3,1.1700001,9.015,-1.7689501,1781187140465
2077668898,3,1.2919501,9.26595,-0.975,1781187140474
2077668908,3,1.2420001,10.2960005,-0.42195,1781187140485
2077668918,3,1.1850001,11.48805,-0.47205,1781187140495
2077668928,3,1.55595,12.357,-0.43605003,1781187140506
2077668939,3,2.049,12.868951,-0.89805007,1781187140514
2077668949,3,2.6140501,12.90495,-2.16195,1781187140527
2077668959,3,3.153,13.21905,-3.0550501,1781187140536
2077668969,3,3.25305,13.473001,-3.1560001,1781187140545
2077668979,3,2.664,17.68395,-0.23205002,1781187140555
2077668989,3,3.3060002,18.35205,1.2970501,1781187140567
2077668999,3,4.01205,11.94495,-2.60295,1781187140577
2077669009,3,2.7,11.766001,-2.35095,1781187140587
2077669019,3,2.4079502,10.88895,-0.64695,1781187140598
2077669029,3,2.38695,10.245001,-0.08895,1781187140607
2077669039,3,2.12595,10.879951,0.648,1781187140618
2077669049,3,1.6990501,12.364051,1.77495,1781187140627
2077669059,3,1.3120501,13.52805,2.6230502,1781187140636
2077669070,3,0.88500005,14.079,3.0660002,1781187140648
2077669080,3,0.22695,14.884951,2.28495,1781187140659
2077669090,3,0.49005002,12.89595,0.30795002,1781187140668
2077669100,3,0.79200006,11.93805,-0.53595,1781187140677
2077669110,3,-0.031050002,11.65305,-1.4389501,1781187140686
2077669120,3,-0.31605002,10.47,-1.7380501,1781187140697
2077669130,3,-0.555,9.655951,-1.7340001,1781187140707
2077669140,3,-0.91395,8.887951,-1.008,1781187140720
2077669150,3,-0.92805004,7.7119503,-0.73305005,1781187140729
2077669160,3,-0.74205005,6.6610503,-0.53595,1781187140738
2077669170,3,-0.33495003,5.84205,-0.58905005,1781187140749
2077669180,3,0.22500001,5.2579503,-0.44805002,1781187140759
2077669190,3,0.31605002,5.4469504,-0.44805002,1781187140769
2077669201,3,0.27705002,5.7780004,-0.95100003,1781187140779
2077669211,3,0.25800002,5.85405,-1.353,1781187140789
2077669221,3,0.22905001,6.1540504,-1.7050501,1781187140799
2077669231,3,0.35595003,6.2590504,-2.1070502,1781187140809
2077669241,3,0.615,6.249,-2.49195,1781187140819
2077669251,3,0.72495,6.5940003,-2.70105,1781187140829
2077669261,3,0.78000003,7.1260505,-2.19105,1781187140839
2077669271,3,1.0860001,7.5259504,-1.7070001,1781187140849
2077669281,3,1.40295,8.091001,-1.1880001,1781187140859
2077669291,3,1.5460501,8.871,-0.675,1781187140869
2077669301,3,1.57305,9.451051,-0.86700004,1781187140879
2077669311,3,1.6180501,9.799951,-0.97005004,1781187140890
2077669321,3,1.623,9.91005,-0.88095003,1781187140899
2077669332,3,1.848,9.99405,-1.044,1781187140910
2077669342,3,2.22405,9.89295,-1.2280501,1781187140920
2077669352,3,2.4150002,9.766951,-1.17795,1781187140929
2077669362,3,2.38905,9.762,-0.735,1781187140939
2077669372,3,2.3410501,9.41895,0.31305,1781187140950
2077669382,3,2.32905,8.89305,1.536,1781187140960
2077669392,3,2.286,8.481,2.3070002,1781187140970
2077669402,3,2.2429502,7.96605,3.11595,1781187140981
2077669412,3,2.08995,7.62405,3.3360002,1781187140990
2077669422,3,1.9080001,7.53,3.1039503,1781187141000
2077669432,3,1.5319501,7.9920006,2.23005,1781187141009
2077669442,3,0.9979501,8.6320505,1.4260501,1781187141021
2077669452,3,0.61005,9.03405,0.61905,1781187141030
2077669463,3,0.45195,8.90505,-0.37395,1781187141041
2077669473,3,0.36105,8.65305,-1.31895,1781187141051
2077669483,3,0.25095,8.67195,-1.9630501,1781187141061
2077669493,3,0.045,9.594001,-1.67805,1781187141071
2077669503,3,-0.058950003,10.465951,-1.4320501,1781187141081
2077669513,3,-0.14295001,10.36005,-0.74700004,1781187141091
2077669523,3,0.057000004,10.695001,-0.09105001,1781187141101
2077669533,3,0.31605002,10.22595,0.14505,1781187141112
2077669543,3,0.54495,9.901051,0.052050002,1781187141122
2077669553,3,0.50205004,9.72105,-0.21300001,1781187141132
2077669563,3,0.49005002,9.225,-0.12705001,1781187141143
2077669573,3,0.462,8.77305,-0.052950002,1781187141152
2077669583,3,0.36600003,8.092951,-0.92205006,1781187141161
2077669593,3,0.031050002,8.34,-0.924,1781187141172
2077669604,3,-0.37095,9.192,-0.72105,1781187141182
2077669614,3,-0.63195,10.078051,-0.40995002,1781187141192
2077669624,3,-0.79395,10.746,-0.48105,1781187141202
2077669634,3,-0.76305,10.662001,-0.64395005,1781187141212
2077669644,3,-0.76605004,10.36995,-0.99105006,1781187141222
2077669654,3,-0.81600004,10.03905,-1.1710501,1781187141232
2077669664,3,-0.78195006,9.673051,-1.2379501,1781187141242
2077669674,3,-0.55305004,9.490951,-0.99405,1781187141252
2077669684,3,-0.43500003,9.570001,-0.55995005,1781187141262
2077669694,3,-0.48105,9.73305,-0.064950004,1781187141273
2077669704,3,-0.42795002,9.59895,0.50595003,1781187141282
2077669714,3,-0.354,9.74505,0.90405005,1781187141293
2077669724,3,-0.26505002,10.03695,0.91800004,1781187141303
2077669735,3,-0.045,10.090051,0.72900003,1781187141313
2077669745,3,0.0139500005,10.224001,0.16395001,1781187141323
2077669755,3,-0.00705,10.309951,-0.24000001,1781187141333
2077669765,3,-0.07395,10.51395,-0.44295,1781187141343
2077669775,3,-0.23895001,10.66005,-0.40005,1781187141353
2077669785,3,-0.08295,10.695001,0.09,1781187141363
2077669795,3,-0.016050002,10.879951,0.20505,1781187141374
2077669805,3,0.9670501,14.44995,4.98105,1781187141383
2077669815,3,1.5150001,14.236951,4.71495,1781187141394
2077669825,3,0.66705,11.64795,1.6009501,1781187141403
2077669835,3,-0.094950005,11.428051,-1.60395,1781187141415
2077669845,3,-0.69405,11.578951,-3.4309502,1781187141423
2077669855,3,-0.016050002,11.377951,-3.3280501,1781187141433
2077669866,3,0.86895007,11.60505,-2.871,1781187141444
2077669876,3,0.897,12.40305,-2.5140002,1781187141454
2077669886,3,0.50205004,13.288051,-1.44105,1781187141464
2077669896,3,0.41805002,13.569,-0.028950002,1781187141473
2077669906,3,0.63195,12.3810005,0.15705001,1781187141483
2077669916,3,0.897,10.924951,-0.261,1781187141494
2077669926,3,1.113,10.839001,-0.675,1781187141504
2077669936,3,1.23,11.44995,-1.0819501,1781187141514
2077669946,3,1.3470001,11.85,-1.2930001,1781187141525
2077669956,3,1.58895,11.457001,-1.67595,1781187141535
2077669966,3,1.6489501,10.84395,-1.9750501,1781187141545
2077669976,3,1.4239501,10.18095,-2.1790502,1781187141555
2077669986,3,1.149,9.592051,-2.0350502,1781187141566
2077669997,3,0.81600004,8.896951,-1.72905,1781187141576
2077670007,3,0.55695003,8.658,-1.26195,1781187141585
2077670017,3,0.19305001,9.484051,-1.3069501,1781187141595
2077670027,3,-0.04695,14.530951,-2.9880002,1781187141604
2077670037,3,0.033,18.823952,-4.58505,1781187141615
2077670047,3,1.04805,15.295051,-3.3420002,1781187141624
2077670057,3,1.8859501,9.166051,-1.128,1781187141635
2077670067,3,1.7950501,6.91695,0.34395,1781187141644
2077670077,3,1.1080501,7.9159503,0.75795,1781187141657
2077670087,3,0.59805006,10.530001,0.34395,1781187141664
2077670097,3,0.26295,12.477,-0.31605002,1781187141676
2077670107,3,0.30600002,11.743951,-0.32595003,1781187141685
2077670117,3,0.22200002,9.927,0.11400001,1781187141695
2077670128,3,-0.17895001,9.369,1.00395,1781187141706
2077670138,3,-0.13800001,9.312,0.51405,1781187141715
2077670148,3,-0.04695,9.943951,-0.80205005,1781187141728
2077670158,3,0.26295,10.111051,-1.76505,1781187141736
2077670168,3,0.19605,10.255051,-1.79805,1781187141746
2077670178,3,0.177,10.252951,-2.5450501,1781187141756
2077670188,3,0.19095,10.114051,-2.6430001,1781187141765
2077670198,3,0.246,10.078051,-2.53305,1781187141775
2077670208,3,0.31995,10.128,-2.2440002,1781187141786
2077670218,3,0.54495,10.02495,-2.5069501,1781187141795
2077670228,3,0.79905003,10.02795,-2.421,1781187141805
2077670238,3,0.924,10.07505,-2.2720501,1781187141814
2077670248,3,1.04595,9.999001,-1.9990501,1781187141825
2077670258,3,1.2559501,9.594001,-1.8049501,1781187141837
2077670269,3,1.43805,9.40695,-1.3219501,1781187141846
2077670279,3,1.6320001,9.52005,-0.975,1781187141855
2077670289,3,2.05095,9.4459505,-1.1209501,1781187141867
2077670299,3,2.298,9.3810005,-0.726,1781187141875
2077670309,3,2.607,9.09105,0.09195001,1781187141887
2077670319,3,3.045,8.92905,0.78900003,1781187141895
2077670329,3,3.7560003,9.151051,0.91800004,1781187141907
2077670339,3,3.66,9.658951,0.41505003,1781187141917
2077670349,3,3.5640001,9.71595,-0.08595,1781187141927
2077670359,3,3.7510502,9.205951,-0.34500003,1781187141941
2077670369,3,3.4999502,8.919001,-0.615,1781187141947
2077670379,3,3.08295,8.920951,-1.3120501,1781187141958
2077670389,3,2.8129501,8.919001,-1.9900501,1781187141968
2077670400,3,2.73795,9.07695,-2.42805,1781187141978
2077670410,3,2.7120001,9.25395,-2.7850502,1781187141986
2077670420,3,2.7190502,9.14595,-3.5320501,1781187141998
2077670430,3,2.6860502,8.809051,-4.425,1781187142008
2077670440,3,2.69295,8.65305,-5.26695,1781187142018
2077670450,3,2.664,8.586,-6.29895,1781187142028
2077670460,3,2.4820502,8.799001,-6.9960003,1781187142036
2077670470,3,2.39895,9.168,-6.42105,1781187142048
2077670480,3,2.35995,9.89805,-5.9089503,1781187142058
2077670490,3,2.2740002,10.61205,-5.7630005,1781187142068
2077670500,3,1.67295,10.92105,-4.8360004,1781187142078
2077670510,3,1.5820501,10.135051,-4.59,1781187142089
2077670520,3,2.08995,8.743951,-5.3970003,1781187142098
2077670531,3,1.9200001,8.11005,-5.0400004,1781187142109
2077670541,3,0.91905004,8.43795,-3.0259502,1781187142119
2077670551,3,0.52395004,9.004951,-2.62695,1781187142129
2077670561,3,0.58395004,9.099,-2.12895,1781187142139
2077670571,3,-0.109950006,8.93805,-0.46695003,1781187142149
2077670581,3,-0.41400003,9.502951,-0.41895002,1781187142159
2077670591,3,0.39900002,11.15295,-1.9900501,1781187142169
2077670601,3,1.67805,14.395051,-2.811,1781187142180
2077670611,3,2.9640002,16.956001,-0.23205002,1781187142189
2077670621,3,3.2359502,15.034051,3.4780502,1781187142199
2077670631,3,2.7820501,8.61705,3.08505,1781187142211
2077670641,3,2.47005,5.2440004,1.2730501,1781187142218
2077670651,3,2.9970002,4.071,0.20205002,1781187142230
2077670662,3,4.395,4.7580004,-0.12495001,1781187142241
2077670672,3,7.5529504,6.70695,1.0639501,1781187142248
2077670682,3,8.67105,8.548051,3.9400501,1781187142258
2077670692,3,8.607,8.20605,5.19705,1781187142270
2077670702,3,8.547,6.5509505,4.0090504,1781187142280
2077670712,3,7.8430505,4.87995,2.7550502,1781187142290
2077670722,3,7.7059503,4.236,1.4280001,1781187142300
2077670732,3,7.8,4.42995,0.61200005,1781187142310
2077670742,3,7.9600506,5.328,0.15705001,1781187142320
2077670752,3,7.8190503,6.2569504,-0.04605,1781187142330
2077670762,3,7.27995,6.9270005,-0.10095,1781187142341
2077670772,3,6.5839505,7.5760503,-0.049950004,1781187142350
2077670782,3,5.8560004,7.9759502,-0.06705,1781187142360
2077670793,3,5.07,8.007,-0.117000006,1781187142371
2077670803,3,4.4500504,8.115001,-0.16305001,1781187142381
2077670813,3,4.08405,8.371051,-0.32595003,1781187142391
2077670823,3,3.9400501,8.742001,-0.44805002,1781187142401
2077670833,3,3.83295,9.06,-0.67305005,1781187142411
2077670843,3,3.6529503,9.1699505,-0.78300005,1781187142421
2077670853,3,3.5359502,9.216001,-0.702,1781187142430
2077670863,3,3.42105,9.23295,-0.642,1781187142441
2077670873,3,3.31095,9.498,-0.56505,1781187142451
2077670883,3,3.1909502,10.095,-0.65895003,1781187142462
2077670893,3,2.8489501,10.56105,-0.71595,1781187142472
2077670903,3,2.2740002,10.566001,-0.55995005,1781187142481
2077670913,3,1.7950501,10.144951,-0.64905006,1781187142491
2077670923,3,1.6009501,9.90495,-0.97200006,1781187142501
2077670934,3,1.58895,9.73095,-1.3270501,1781187142511
2077670944,3,1.7500501,9.52995,-1.6620001,1781187142522
2077670954,3,2.09205,9.558001,-1.7569501,1781187142532
2077670964,3,2.48895,9.831,-1.5990001,1781187142542
2077670974,3,2.7580502,10.071,-1.5300001,1781187142552
2077670984,3,2.94,9.793051,-1.4080501,1781187142562
2077670994,3,3.00195,9.18,-1.3789501,1781187142574
2077671004,3,3.1980002,8.802,-1.6519501,1781187142582
2077671014,3,3.591,8.622001,-2.19105,1781187142593
2077671024,3,3.9379501,8.62695,-2.7130501,1781187142603
2077671034,3,4.16295,8.45205,-3.0580502,1781187142613
2077671044,3,4.1059504,8.245951,-3.0859501,1781187142622
2077671054,3,4.15605,8.241,-3.3709502,1781187142633
2077671065,3,4.158,8.347051,-3.69705,1781187142643
2077671075,3,4.01895,8.30595,-3.89805,1781187142653
2077671085,3,3.8880002,8.325001,-4.0030503,1781187142663
2077671095,3,3.6430502,8.27295,-3.9240003,1781187142674
2077671105,3,3.4830003,8.349,-3.9100502,1781187142683
2077671115,3,3.3390002,8.578951,-3.9790502,1781187142693
2077671125,3,3.2290502,8.79,-4.032,1781187142703
2077671135,3,3.0930002,8.99295,-3.9889503,1781187142714
2077671145,3,2.91105,9.040951,-3.80205,1781187142725
2077671155,3,2.703,8.964001,-3.45,1781187142734
2077671165,3,2.4460502,8.871,-3.24195,1781187142744
2077671175,3,2.32905,8.809051,-3.5029502,1781187142755
2077671185,3,2.4780002,8.823,-4.05105,1781187142764
2077671196,3,2.79795,8.89995,-4.446,1781187142774
2077671206,3,3.1219501,8.77305,-4.51305,1781187142784
2077671216,3,3.32505,8.706,-4.2379503,1781187142795
2077671226,3,3.519,8.727,-4.044,1781187142805
2077671236,3,3.83295,8.6629505,-4.3120503,1781187142814
2077671246,3,4.0480504,8.55,-4.7790003,1781187142825
2077671256,3,3.9070501,8.28195,-4.7140503,1781187142835
2077671266,3,3.6319501,8.229,-4.5160503,1781187142844
2077671276,3,3.5170503,8.3230505,-4.4700003,1781187142855
2077671286,3,3.5760002,8.34,-4.5540004,1781187142865
2077671296,3,3.6840003,8.158051,-4.8289504,1781187142875
2077671306,3,3.6460502,8.184,-4.75995,1781187142884
2077671316,3,3.5500503,8.371051,-4.21605,1781187142894
2077671327,3,3.5380502,8.574,-3.6660001,1781187142905
2077671337,3,3.4759502,8.6650505,-3.2730002,1781187142915
2077671347,3,3.52905,8.517,-3.5989501,1781187142924
2077671357,3,3.351,8.51895,-3.8380501,1781187142934
2077671367,3,3.07605,8.48805,-4.19205,1781187142945
2077671377,3,2.8459501,8.565001,-4.4440503,1781187142954
2077671387,3,2.66895,8.80395,-4.4749503,1781187142967
2077671397,3,2.628,9.148951,-4.3240504,1781187142974
2077671407,3,2.8459501,9.39105,-3.9100502,1781187142985
2077671417,3,3.1960502,9.37905,-3.2629502,1781187142996
2077671427,3,3.59295,9.06705,-2.9310002,1781187143004
2077671437,3,3.8400002,8.68395,-2.9550002,1781187143016
2077671447,3,3.8920503,8.28705,-3.0580502,1781187143025
2077671458,3,4.03905,8.16495,-3.2280002,1781187143035
2077671468,3,4.086,8.24895,-3.177,1781187143046
2077671478,3,4.0669503,8.316,-2.9520001,1781187143055
2077671488,3,4.20405,8.301001,-2.67195,1781187143065
2077671498,3,4.158,8.17905,-1.9230001,1781187143076
2077671508,3,4.16295,8.071051,-1.4130001,1781187143086
2077671518,3,4.242,8.095051,-1.1329501,1781187143094
2077671528,3,4.32795,8.244,-1.1040001,1781187143104
2077671538,3,4.42395,8.365951,-1.4610001,1781187143115
2077671548,3,4.48605,8.328,-1.9300501,1781187143125
2077671558,3,4.362,8.26305,-2.2789502,1781187143136
2077671568,3,4.27605,8.043,-2.7610502,1781187143145
2077671578,3,4.55595,7.9159503,-3.4050002,1781187143155
2077671588,3,4.8619504,7.7580004,-3.867,1781187143165
2077671599,3,5.0680504,7.7509503,-3.8209503,1781187143175
2077671609,3,5.0940003,7.8079505,-3.6109502,1781187143187
2077671619,3,4.9630504,8.0119505,-3.1339502,1781187143195
2077671629,3,4.65105,8.304001,-2.53305,1781187143206
2077671639,3,4.29195,8.845051,-2.22,1781187143215
2077671649,3,3.8710501,9.37605,-2.3059502,1781187143225
2077671659,3,3.3610501,9.702001,-2.634,1781187143237
2077671669,3,2.832,9.460051,-3.216,1781187143247
2077671679,3,1.9390501,9.24495,-3.21105,1781187143257
2077671689,3,1.0170001,9.20205,-2.66505,1781187143267
2077671699,3,0.61695004,9.44295,-2.4130502,1781187143278
2077671709,3,0.40695003,9.481951,-2.5189502,1781187143287
2077671719,3,0.34395,9.472051,-2.60295,1781187143298
2077671730,3,0.40695003,9.39105,-2.9950502,1781187143308
2077671740,3,0.804,9.880951,-3.8380501,1781187143318
2077671750,3,1.1149501,10.20195,-4.25895,1781187143328
2077671760,3,1.503,10.401,-4.0939503,1781187143337
2077671770,3,1.6320001,10.36995,-2.8590002,1781187143348
2077671780,3,1.8889501,10.096951,-1.41495,1781187143358
2077671790,3,2.8200002,10.20195,-1.06095,1781187143368
2077671800,3,3.6100502,9.766951,-1.2790501,1781187143378
2077671810,3,4.06995,8.46195,-1.38405,1781187143388
2077671820,3,4.4929504,7.7149506,-1.6500001,1781187143398
2077671830,3,5.05095,7.7650504,-1.7119501,1781187143409
2077671840,3,5.34105,7.8889503,-1.9080001,1781187143420
2077671850,3,5.3029504,7.9759502,-2.157,1781187143427
2077671861,3,4.86705,7.7430005,-2.196,1781187143439
2077671871,3,4.4380503,7.662,-2.5549502,1781187143449
2077671881,3,3.9480002,8.229,-3.0000002,1781187143459
2077671891,3,3.4350002,8.90205,-3.1339502,1781187143468
2077671901,3,3.10695,9.051001,-3.1290002,1781187143479
2077671911,3,3.0589502,8.839951,-3.21105,1781187143488
2077671921,3,3.0280502,8.754001,-3.2080503,1781187143498
2077671931,3,2.9560502,8.73495,-3.28695,1781187143509
2077671941,3,2.832,8.79,-2.94495,1781187143519
2077671951,3,2.7240002,8.646001,-2.7220502,1781187143529
2077671961,3,2.7240002,8.409,-3.18195,1781187143538
2077671971,3,2.703,8.233951,-3.7830002,1781187143549
2077671981,3,2.5800002,8.371051,-4.1059504,1781187143560
2077671992,3,2.4390001,8.775001,-4.1779504,1781187143570
2077672002,3,2.3430002,8.931001,-4.092,1781187143580
2077672012,3,2.394,9.193951,-4.0459504,1781187143590
2077672022,3,2.523,9.21105,-4.3500004,1781187143600
2077672032,3,2.98005,8.91705,-5.3820004,1781187143610
2077672042,3,3.3270001,8.598001,-6.5220003,1781187143620
2077672052,3,3.1740003,8.44305,-6.47205,1781187143630
2077672062,3,2.8609502,8.505,-5.466,1781187143640
2077672072,3,2.5729501,8.78295,-4.72905,1781187143650
2077672082,3,2.427,8.7949505,-4.743,1781187143661
2077672092,3,2.43,8.79705,-4.6330504,1781187143670
2077672102,3,2.499,8.65995,-3.9859502,1781187143682
2077672112,3,2.6910002,8.598001,-4.1329503,1781187143691
2077672123,3,2.8290002,8.65305,-4.3219504,1781187143701
2077672133,3,2.7480001,8.565001,-3.5530503,1781187143711
2077672143,3,2.87505,8.232,-3.7159503,1781187143721
2077672153,3,3.2580001,8.43105,-4.362,1781187143731
2077672163,3,3.3730502,8.48295,-3.9100502,1781187143741
2077672173,3,3.3630002,8.46195,-3.6870003,1781187143751
2077672183,3,3.04695,8.62005,-3.5530503,1781187143761
2077672193,3,2.604,8.16495,-2.9640002,1781187143771
2077672203,3,2.23305,8.48295,-3.4690502,1781187143781
2077672213,3,1.76205,9.40305,-3.7729502,1781187143791
2077672223,3,1.338,9.036,-2.60505,1781187143801
2077672233,3,1.371,8.44695,-1.7689501,1781187143811
2077672243,3,1.82895,9.295051,-3.0000002,1781187143822
2077672253,3,2.331,9.393001,-3.5820003,1781187143831
2077672264,3,2.4540002,8.802,-4.2910504,1781187143842
2077672274,3,2.6479502,8.884951,-4.8889503,1781187143852
2077672284,3,2.7580502,9.160951,-5.0020504,1781187143862
2077672294,3,2.5780501,9.172951,-5.4370503,1781187143872
2077672304,3,2.45595,9.1699505,-6.2200503,1781187143882
2077672314,3,2.22105,9.372001,-5.847,1781187143892
2077672324,3,1.8019501,9.123,-3.65805,1781187143902
2077672334,3,1.6489501,8.91195,-2.8560002,1781187143912
2077672344,3,2.025,8.15295,-2.667,1781187143922
2077672354,3,2.6239502,7.8679504,-2.2750502,1781187143932
2077672364,3,3.009,8.203051,-2.35095,1781187143942
2077672374,3,3.1620002,8.265,-2.6430001,1781187143952
2077672384,3,3.1219501,8.115001,-1.212,1781187143963
2077672395,3,2.5420501,8.25105,-1.8360001,1781187143973
2077672405,3,2.02305,8.524051,-3.21105,1781187143983
2077672415,3,2.157,8.622001,-7.1920505,1781187143993
2077672425,3,2.76705,7.9759502,-5.4210005,1781187144003
2077672435,3,2.77395,8.20995,-2.00895,1781187144013
2077672445,3,2.11395,8.337001,-2.43495,1781187144023
2077672455,3,1.5840001,8.026051,-2.01105,1781187144033
2077672465,3,1.491,8.194051,-3.213,1781187144043
2077672475,3,1.5010501,8.409,-4.7140503,1781187144054
2077672485,3,2.013,7.68795,-7.06995,1781187144064
2077672495,3,2.8609502,8.12895,-8.85105,1781187144074
2077672505,3,2.74305,8.352,-9.43305,1781187144084
2077672515,3,2.35305,8.3869505,-7.3360505,1781187144094
2077672526,3,1.8720001,9.46695,-6.3090005,1781187144104
2077672536,3,1.82895,8.63595,-3.3690002,1781187144114
2077672546,3,1.9579501,8.434951,-3.49305,1781187144124
2077672556,3,2.28795,8.6629505,-4.93905,1781187144134
2077672566,3,2.3029501,9.0390005,-6.2419505,1781187144145
2077672576,3,2.1760502,9.331051,-6.5389504,1781187144154
2077672586,3,2.082,8.995951,-6.19605,1781187144165
2077672596,3,2.05905,8.65095,-5.57595,1781187144174
2077672606,3,2.19705,8.48595,-5.7439504,1781187144184
2077672616,3,2.2810502,8.398951,-5.8440003,1781187144195
2077672626,3,2.358,8.352,-6.0000005,1781187144204
2077672636,3,2.46105,7.7479506,-5.8560004,1781187144215
2077672646,3,2.5780501,6.7930503,-4.8439503,1781187144223
2077672657,3,2.69295,6.5680504,-5.08995,1781187144235
2077672667,3,3.1000502,6.77895,-5.8300505,1781187144245
2077672677,3,3.3439503,7.1860504,-5.9620504,1781187144255
2077672687,3,3.45705,7.6860003,-5.2650003,1781187144265
2077672697,3,3.31095,8.28195,-4.22805,1781187144274
2077672707,3,2.9970002,8.955001,-5.0500503,1781187144285
2077672717,3,2.358,9.28995,-5.076,1781187144295
2077672727,3,1.8910501,9.196951,-2.43,1781187144304
2077672737,3,1.6900501,8.59605,0.37695003,1781187144314
2077672747,3,1.1890501,8.743951,-2.56395,1781187144325
2077672757,3,1.30005,8.811001,-2.9860501,1781187144335
2077672767,3,1.8910501,8.91405,-2.16195,1781187144345
2077672777,3,2.25705,9.151051,-1.24995,1781187144355
2077672788,3,2.0320501,9.295051,-1.5829501,1781187144365
2077672798,3,1.51995,9.154051,-3.07905,1781187144375
2077672808,3,1.14405,8.842051,-3.34695,1781187144385
2077672818,3,1.04595,8.874001,-3.31395,1781187144395
2077672828,3,1.05795,9.23505,-3.6870003,1781187144405
2077672838,3,1.0669501,9.283051,-4.23495,1781187144416
2077672848,3,0.99105006,9.39795,-4.45095,1781187144426
2077672858,3,1.1149501,9.21105,-4.6090503,1781187144435
2077672868,3,1.218,9.03195,-4.4820004,1781187144444
2077672878,3,1.1539501,8.851951,-4.0609503,1781187144455
2077672888,3,1.197,8.68395,-3.76395,1781187144465
2077672898,3,1.371,8.512051,-4.29495,1781187144474
2077672908,3,1.58895,8.313001,-4.35795,1781187144486
2077672918,3,1.7950501,8.160001,-4.602,1781187144494
2077672929,3,1.9960501,8.028001,-4.9300504,1781187144504
2077672939,3,2.12295,7.7790003,-5.2189503,1781187144516
2077672949,3,2.07795,7.6170006,-5.5360503,1781187144526
2077672959,3,2.11095,7.4440503,-5.5740004,1781187144536
2077672969,3,2.1450002,7.3890004,-6.012,1781187144548
2077672979,3,2.1420002,7.4010005,-6.3469505,1781187144555
2077672989,3,2.11095,7.4269505,-6.6540003,1781187144566
2077672999,3,1.917,7.6429505,-7.2690005,1781187144576
2077673009,3,1.692,7.6480503,-7.4989505,1781187144587
2077673019,3,1.7160001,7.6170006,-7.4940004,1781187144597
2077673029,3,1.64205,7.6050005,-8.302951,1781187144607
2077673039,3,1.4650501,7.6930504,-7.6590004,1781187144618
2077673049,3,1.50495,8.004001,-6.5460005,1781187144628
2077673060,3,1.28805,8.00895,-6.7159505,1781187144636
2077673070,3,1.0890001,7.866,-6.91695,1781187144648
2077673080,3,1.029,7.8850503,-6.3520503,1781187144658
2077673090,3,0.96405005,8.08605,-5.808,1781187144668
2077673100,3,0.82800007,8.28195,-5.7649503,1781187144678
2077673110,3,0.67005,8.29695,-5.57595,1781187144688
2077673120,3,0.66705,8.277,-5.3560505,1781187144698
2077673130,3,0.79695004,8.16705,-5.1049504,1781187144708
2077673140,3,1.04295,8.188951,-4.93905,1781187144718
2077673150,3,1.3279501,7.9570503,-5.0730004,1781187144732
2077673160,3,1.59405,7.6639504,-5.346,1781187144739
2077673170,3,1.71405,7.4419503,-5.6119504,1781187144749
2077673180,3,1.7190001,7.18305,-6.1410003,1781187144759
2077673191,3,1.66305,7.176,-6.26805,1781187144769
2077673201,3,1.6200001,7.2430506,-6.2440505,1781187144779
2077673211,3,1.5340501,7.4370003,-6.405,1781187144789
2077673221,3,1.30005,7.5930004,-6.3949504,1781187144799
2077673231,3,1.02405,7.7310004,-6.6270003,1781187144810
2077673241,3,0.85905004,7.6399503,-6.807,1781187144819
2077673251,3,0.85395,7.56405,-6.7249503,1781187144829
2077673261,3,1.0510501,7.518,-6.7230005,1781187144839
2077673271,3,1.2559501,7.41795,-6.90495,1781187144849
2077673281,3,1.3240501,7.3120503,-7.03905,1781187144859
2077673291,3,1.29495,7.32705,-7.2229505,1781187144869
2077673301,3,1.1890501,7.2790504,-7.18305,1781187144879
2077673311,3,1.1200501,7.3750505,-7.0459504,1781187144889
2077673322,3,1.1340001,7.3560004,-6.80205,1781187144899
2077673332,3,1.1149501,7.3320003,-6.642,1781187144910
2077673342,3,1.1080501,7.1640005,-6.8599505,1781187144920
2077673352,3,1.2709501,7.09005,-7.28595,1781187144930
2077673362,3,1.314,7.0350003,-7.458,1781187144940
2077673372,3,1.31895,7.12305,-7.5730505,1781187144950
2077673382,3,1.3930501,7.0519505,-8.30595,1781187144960
2077673392,3,1.24695,7.2019506,-7.3380003,1781187144970
2077673402,3,1.2229501,7.10895,-7.2430506,1781187144980
2077673412,3,1.182,7.1980505,-7.2259502,1781187144990
2077673422,3,1.21305,7.2379503,-7.37895,1781187145000
2077673432,3,1.16295,7.1929502,-6.9409504,1781187145010
2077673442,3,1.1340001,7.21005,-6.5550003,1781187145021
2077673453,3,1.3429501,7.1860504,-6.8479505,1781187145031
2077673463,3,1.33095,7.1449504,-6.0070505,1781187145041
2077673473,3,1.383,7.0080004,-6.0259504,1781187145051
2077673483,3,1.4430001,7.0660505,-6.10305,1781187145061
2077673493,3,1.47,7.1140504,-6.43305,1781187145071
2077673503,3,1.422,7.1190004,-6.47205,1781187145081
2077673513,3,1.6560001,6.8980503,-7.6090503,1781187145091
2077673523,3,1.9200001,6.867,-8.193001,1781187145101
2077673533,3,1.9030501,6.7639503,-8.277,1781187145111
2077673543,3,1.692,6.6180005,-8.34405,1781187145121
2077673553,3,1.48905,6.6829505,-8.380051,1781187145131
2077673563,3,1.33305,6.8770504,-7.6399503,1781187145142
2077673573,3,1.2919501,7.18095,-7.3410006,1781187145151
2077673583,3,1.35195,7.32705,-7.386,1781187145162
2077673594,3,1.491,7.38705,-7.9440002,1781187145172
2077673604,3,1.4959501,7.2430506,-8.00595,1781187145182
2077673614,3,1.51005,7.1140504,-8.334001,1781187145192
2077673624,3,1.5490501,6.9820504,-8.260051,1781187145202
2077673634,3,1.7590501,6.7450504,-8.65305,1781187145212
2077673644,3,1.82895,7.0350003,-8.385,1781187145222
2077673654,3,1.5960001,7.2169504,-8.05395,1781187145232
2077673664,3,1.48395,7.0249505,-8.028001,1781187145242
2077673674,3,1.51005,7.188,-7.3380003,1781187145252
2077673684,3,1.6710001,7.09005,-6.77295,1781187145262
2077673694,3,2.298,6.7260003,-6.5340004,1781187145273
2077673704,3,3.22005,6.4510503,-5.5399504,1781187145282
2077673714,3,3.354,6.1990504,-4.3050003,1781187145293
2077673725,3,2.904,5.826,-4.15605,1781187145303
2077673735,3,2.7169502,5.42595,-3.8430002,1781187145313
2077673745,3,3.045,5.5360503,-3.5149503,1781187145323
2077673755,3,2.88,6.6520505,-3.58905,1781187145333
2077673765,3,2.0989501,7.7839503,-3.0700502,1781187145343
2077673775,3,0.90495,8.77305,-3.081,1781187145353
2077673785,3,-0.20295002,9.04605,-4.2259502,1781187145363
2077673795,3,-1.3980001,9.288,-4.15605,1781187145373
2077673805,3,-1.8739501,9.460051,-3.6700501,1781187145383
2077673815,3,-1.8000001,9.958051,-2.9280002,1781187145394
2077673825,3,-1.4650501,10.264951,-1.7380501,1781187145404
2077673835,3,-1.302,10.747951,-1.815,1781187145415
2077673845,3,-1.266,10.552051,-1.542,1781187145424
2077673856,3,-1.6320001,10.18305,-1.9710001,1781187145435
2077673866,3,-2.09205,10.332001,-2.7130501,1781187145444
2077673876,3,-2.35995,10.830001,-3.4999502,1781187145455
2077673886,3,-2.60205,11.088,-3.7470002,1781187145465
2077673926,3,-0.03795,9.08895,-3.07905,1781187145503
2077673936,3,0.24105,8.29905,-2.028,1781187145512
2077673946,3,0.49995002,7.6450505,-2.0400002,1781187145522
2077673956,3,0.87600005,7.7050505,-2.28195,1781187145532
2077673966,3,1.31595,7.8780003,-3.0169501,1781187145542
2077673976,3,1.45305,7.6909504,-4.0129504,1781187145552
2077673987,3,1.51005,7.15005,-5.5210505,1781187145563
2077673997,3,1.2040501,6.8260503,-6.50505,1781187145575
2077674007,3,1.077,6.77895,-7.2640505,1781187145583
2077674017,3,1.1700001,6.94395,-7.6519504,1781187145593
2077674027,3,1.314,6.9940505,-8.116051,1781187145603
2077674037,3,1.3909501,6.9940505,-8.44005,1781187145613
2077674047,3,1.7040001,6.9199505,-8.52105,1781187145623
2077674057,3,1.5820501,6.7590003,-8.859,1781187145634
2077674067,3,1.21605,6.62295,-8.928,1781187145644
2077674077,3,0.83295006,6.8910003,-8.575951,1781187145653
2077674087,3,0.46395,7.3960505,-8.253,1781187145663
2077674097,3,0.18405001,7.8250504,-8.21205,1781187145674
2077674107,3,0.028050002,7.6860003,-8.266951,1781187145684
2077674117,3,-0.08595,7.6600504,-8.245951,1781187145694
2077674128,3,-0.093,7.8460503,-8.23095,1781187145704
2077674138,3,0.126,7.83195,-7.9200006,1781187145714
2077674148,3,0.47595003,7.629,-7.2670503,1781187145725
2077674158,3,0.82305,7.3680005,-6.6540003,1781187145735
2077674168,3,1.0360501,7.1640005,-5.727,1781187145744
2077674178,3,0.86895007,7.3699503,-6.8280005,1781187145755
2077674188,3,0.51405,7.6500006,-6.3180003,1781187145765
2077674198,3,0.40395,7.83195,-5.859,1781187145774
2077674208,3,0.29205,7.794,-6.3349504,1781187145785
2077674218,3,0.34905002,7.5709505,-6.084,1781187145795
2077674228,3,0.55695003,7.5040503,-6.1150503,1781187145805
2077674238,3,0.91200006,7.3030505,-6.18405,1781187145814
2077674248,3,1.3120501,7.0540504,-6.02895,1781187145825
2077674259,3,1.56105,6.8310003,-5.9230504,1781187145835
2077674269,3,1.52205,6.8820004,-6.0430503,1781187145845
2077674279,3,1.1770501,7.1640005,-6.8599505,1781187145855
2077674289,3,1.12995,7.12095,-7.3000503,1781187145866
2077674299,3,0.86895007,6.9649506,-8.028001,1781187145875
2077674309,3,0.66495,6.9030004,-8.13105,1781187145885
2077674319,3,0.55695003,7.4539504,-8.217,1781187145896
2077674329,3,0.351,7.5760503,-8.80395,1781187145905
2077674339,3,0.094950005,7.6740003,-9.07695,1781187145915
2077674349,3,-0.033,7.59705,-8.658,1781187145926
2077674359,3,0.094950005,7.4989505,-8.538,1781187145936
2077674369,3,0.54300004,7.4080505,-8.298,1781187145946
2077674379,3,0.72,7.5730505,-8.157001,1781187145956
2077674390,3,0.63600004,7.62405,-7.9849505,1781187145966
2077674400,3,0.711,7.4419503,-7.3890004,1781187145976
2077674410,3,0.67905,7.46295,-6.4879503,1781187145987
2077674420,3,0.69600004,7.52295,-5.9760003,1781187145997
2077674430,3,0.76995003,7.59705,-5.82495,1781187146006
2077674440,3,0.80595005,7.6330504,-5.8830004,1781187146017
2077674450,3,0.95205003,7.6639504,-5.7510004,1781187146027
2077674460,3,1.098,7.5259504,-5.7130504,1781187146039
2077674470,3,1.266,7.22205,-4.90605,1781187146047
2077674480,3,1.2760501,7.3030505,-4.4149504,1781187146057
2077674490,3,1.2919501,7.629,-4.671,1781187146067
2077674500,3,1.383,7.9420505,-4.96995,1781187146076
2077674510,3,1.2250501,7.8079505,-4.8240004,1781187146087
2077674521,3,1.005,7.7050505,-4.767,1781187146097
2077674531,3,0.873,7.7580004,-4.45095,1781187146107
2077674541,3,0.62205005,8.469001,-4.623,1781187146117
2077674551,3,0.19605,9.604051,-4.52505,1781187146127
2077674561,3,-1.09095,11.083051,-5.42805,1781187146137
2077674571,3,-2.6470501,11.26095,-4.518,1781187146148
2077674581,3,-3.14295,9.670951,-3.867,1781187146157
2077674591,3,-2.9899502,8.674951,-3.072,1781187146167
2077674601,3,-2.4390001,9.573001,-2.39205,1781187146178
2077674611,3,-1.455,10.413,-1.8030001,1781187146187
2077674621,3,-0.58395004,9.71595,-1.36995,1781187146197
2077674631,3,0.112050004,8.862,-1.4580001,1781187146208
2077674641,3,0.72495,8.95995,-1.4940001,1781187146218
2077674652,3,1.0510501,9.30405,-1.365,1781187146228
2077674662,3,1.065,9.007951,-1.437,1781187146238
2077674672,3,0.744,8.62005,-1.52505,1781187146248
2077674682,3,0.25605002,8.991,-1.9780501,1781187146258
2077674692,3,-0.141,9.57495,-2.7919502,1781187146268
2077674702,3,-0.26295,9.38595,-3.3019502,1781187146278
2077674712,3,-0.094950005,8.731951,-3.2920501,1781187146288
2077674722,3,0.14595,8.967,-2.7799501,1781187146298
2077674732,3,0.201,9.361951,-2.7580502,1781187146308
2077674742,3,0.18900001,9.252001,-2.7970502,1781187146318
2077674752,3,0.049950004,8.859,-2.8660502,1781187146328
2077674762,3,-0.10005,8.799001,-2.7559502,1781187146339
2077674772,3,-0.15300001,9.010051,-2.5480502,1781187146349
2077674782,3,-0.27,9.120001,-2.67195,1781187146359
2077674793,3,-0.35895002,8.871,-2.9020503,1781187146369
2077674803,3,-0.33,8.625,-3.45495,1781187146379
2077674813,3,-0.22005,8.51895,-3.7759502,1781187146389
2077674823,3,-0.04695,8.457001,-3.8550003,1781187146399
2077674833,3,0.21495001,8.026051,-4.3819504,1781187146410
2077674843,3,0.483,7.5690002,-5.3250003,1781187146419
2077674853,3,0.54795,7.9159503,-6.33795,1781187146430
2077674863,3,0.64095,7.8850503,-7.2709503,1781187146439
2077674873,3,0.56895,7.7479506,-7.7449503,1781187146449
2077674883,3,0.26805001,7.9009504,-6.8569503,1781187146460
2077674893,3,0.13395001,7.8540006,-6.0739503,1781187146470
2077674903,3,-0.13395001,7.96605,-5.9830503,1781187146480
2077674913,3,-0.31800002,8.224951,-5.04495,1781187146490
2077674924,3,-0.684,8.25105,-5.6670003,1781187146500
2077674934,3,-0.90705,8.313001,-6.249,1781187146510
2077674944,3,-0.85905004,8.280001,-6.8760004,1781187146522
2077674954,3,-0.65805006,8.052,-7.35795,1781187146529
2077674964,3,-0.21495001,7.425,-7.353,1781187146540
2077674974,3,0.22005,7.1400003,-7.326,1781187146551
2077674984,3,0.55995005,7.01805,-7.52295,1781187146560
2077674994,3,0.66495,7.011,-7.55595,1781187146571
2077675004,3,0.55995005,7.0519505,-7.635,1781187146581
2077675014,3,0.42105,7.0279503,-7.9900503,1781187146591
2077675024,3,0.28005,7.0920005,-8.425051,1781187146601
2077675034,3,0.25605002,7.1659503,-8.26305,1781187146610
2077675044,3,0.141,7.21005,-8.241,1781187146621
2077675055,3,0.03795,7.1569505,-8.1,1781187146631
2077675065,3,0.040050004,7.0519505,-7.8769503,1781187146641
2077675075,3,0.010950001,7.0870504,-7.8529506,1781187146651
2077675085,3,-0.009000001,7.0950003,-8.089951,1781187146661
2077675095,3,-0.06705,7.21005,-7.7880006,1781187146671
2077675105,3,-0.21300001,7.34805,-7.4940004,1781187146680
2077675115,3,-0.363,7.35795,-7.4149504,1781187146691
2077675125,3,-0.52905005,7.3560004,-7.5829506,1781187146700
2077675135,3,-0.54495,7.2690005,-6.88605,1781187146711
2077675145,3,-0.35595003,7.3650002,-7.2760506,1781187146721
2077675155,3,0.025950002,7.3750505,-7.077,1781187146731
2077675165,3,0.28005,7.2259502,-6.6610503,1781187146741
2077675175,3,0.18405001,7.1310005,-7.0630503,1781187146751
2077675186,3,0.33,7.1520004,-6.5460005,1781187146761
2077675196,3,0.34695002,7.1590505,-6.9360003,1781187146772
2077675206,3,0.16695,7.21005,-6.68205,1781187146782
2077675216,3,0.19605,7.1350503,-6.26595,1781187146792
2077675226,3,0.342,7.1280003,-6.366,1781187146802
2077675236,3,0.15,7.2570004,-6.35895,1781187146812
2077675246,3,-0.025950002,7.3510504,-6.18405,1781187146823
2077675256,3,-0.0139500005,7.3560004,-6.6730504,1781187146832
2077675266,3,-0.18900001,7.36005,-6.6270003,1781187146842
2077675276,3,0.040050004,7.1659503,-6.7330503,1781187146852
2077675286,3,0.097950004,7.21395,-6.57,1781187146863
2077675296,3,0.076050006,7.1860504,-6.72795,1781187146873
2077675306,3,0.076050006,7.1659503,-6.7110004,1781187146883
2077675317,3,0.043050002,7.1620502,-6.8640003,1781187146894
2077675327,3,0.049950004,7.2120004,-6.8689504,1781187146903
2077675337,3,-0.064050004,7.1740503,-7.0609503,1781187146913
2077675347,3,-0.076050006,7.2570004,-6.7570505,1781187146923
2077675357,3,-0.052050002,7.1620502,-7.116,1781187146933
2077675367,3,-0.112050004,7.2190504,-6.9529505,1781187146943
2077675377,3,-0.00405,7.2169504,-7.00995,1781187146954
2077675387,3,-0.01905,7.1350503,-6.8910003,1781187146963
2077675397,3,0.15,7.0320005,-7.0870504,1781187146973
2077675407,3,0.27705002,7.0230002,-7.08195,1781187146983
2077675417,3,0.31305,6.8959503,-7.4560504,1781187146994
2077675427,3,0.21300001,6.97695,-7.5370502,1781187147004
2077675437,3,0.162,6.951,-7.53,1781187147014
2077675447,3,0.19800001,7.01805,-7.7050505,1781187147025
2077675458,3,0.076050006,7.10895,-8.2240505,1781187147034
2077675468,3,-0.049950004,7.0729504,-7.59495,1781187147045
2077675478,3,-0.18405001,7.21005,-7.3050003,1781187147054
2077675488,3,-0.07095,7.116,-7.3620005,1781187147064
2077675498,3,0.010950001,7.0129504,-7.3380003,1781187147074
2077675508,3,0.08595,7.044,-7.2229505,1781187147084
2077675518,3,0.19605,7.1190004,-7.8,1781187147094
2077675528,3,0.094950005,7.25505,-8.52105,1781187147104
2077675538,3,-0.27,7.5520506,-8.181001,1781187147115
2077675548,3,-0.41595003,7.5930004,-8.121,1781187147125
2077675558,3,-0.39705002,7.3320003,-7.8240004,1781187147134
2077675568,3,-0.33900002,7.5450006,-7.7190003,1781187147145
2077675578,3,-0.50895,7.7149506,-7.1680503,1781187147155
2077675589,3,-0.49500003,7.72695,-6.6220503,1781187147164
2077675599,3,-0.63900006,8.095051,-7.31895,1781187147177
2077675609,3,-0.864,8.22,-7.0129504,1781187147187
2077675619,3,-0.54795,7.7149506,-5.5279503,1781187147195
2077675629,3,-0.16695,7.7530503,-5.598,1781187147204
2077675639,3,0.052050002,7.6429505,-5.2510505,1781187147215
2077675649,3,0.105000004,7.767,-5.01105,1781187147225
2077675659,3,0.43005002,7.2840004,-4.28805,1781187147236
2077675669,3,1.04595,6.77895,-3.7350001,1781187147247
2077675679,3,1.6060501,6.76905,-3.6370502,1781187147255
2077675689,3,1.9560001,6.6060004,-3.9240003,1781187147267
2077675699,3,2.18505,6.4549503,-3.99795,1781187147276
2077675709,3,2.2090502,6.393,-4.11795,1781187147286
2077675720,3,2.11605,6.288,-4.1610003,1781187147296
2077675730,3,1.9270501,6.16305,-4.77405,1781187147306
2077675740,3,1.7209501,6.1369505,-6.3829503,1781187147316
2077675750,3,1.113,6.3450003,-7.3360505,1781187147326
2077675760,3,0.73905003,6.7000504,-7.0030503,1781187147336
2077675770,3,0.41805002,7.2790504,-6.73995,1781187147346
2077675780,3,0.25995,7.46295,-7.425,1781187147356
2077675790,3,0.17400001,7.1980505,-8.53995,1781187147366
2077675800,3,-0.25800002,7.3360505,-8.337001,1781187147375
2077675810,3,-0.66705,7.6930504,-8.157001,1781187147387
2077675820,3,-1.029,7.7910004,-9.712951,1781187147397
2077675830,3,-1.21605,7.7050505,-9.337951,1781187147407
2077675840,3,-0.95505005,7.629,-8.67,1781187147418
2077675851,3,-0.42795002,7.1980505,-8.743951,1781187147426
2077675861,3,-0.057000004,6.5890503,-8.67405,1781187147436
2077675871,3,0.43995002,6.3090005,-8.682,1781187147447
2077675881,3,0.76995003,6.1369505,-8.269951,1781187147457
2077675891,3,0.69900006,6.52995,-8.172,1781187147468
2077675901,3,0.177,6.9580503,-7.8790503,1781187147478
2077675911,3,-0.064050004,7.0969505,-7.7719502,1781187147489
2077675921,3,0.0019500001,6.97305,-7.3840504,1781187147503
2077675931,3,0.32805002,6.879,-6.78105,1781187147507
2077675941,3,0.71505004,6.7260003,-6.3019505,1781187147518
2077675951,3,0.91200006,6.69495,-6.4999504,1781187147528
2077675961,3,0.66705,6.9079504,-6.64905,1781187147538
2077675971,3,0.052050002,7.22205,-7.056,1781187147548
2077675982,3,-0.105000004,7.32705,-7.5349503,1781187147558
2077675992,3,-0.16695,7.1470504,-7.5319505,1781187147568
2077676002,3,0.10005,7.248,-7.1779504,1781187147578
2077676012,3,0.022950001,7.2570004,-7.5319505,1781187147588
2077676022,3,0.21000001,6.9490504,-7.52295,1781187147598
2077676032,3,0.46905002,6.97305,-7.6639504,1781187147608
2077676042,3,-0.12195001,7.41795,-7.3960505,1781187147618
2077676052,3,0.84705,6.7120504,-6.6460505,1781187147629
2077676062,3,1.434,6.4170003,-6.0259504,1781187147638
2077676072,3,1.12995,6.47205,-6.6940503,1781187147649
2077676082,3,0.37800002,6.9889503,-7.314,1781187147660
2077676092,3,0.04695,7.188,-7.7790003,1781187147669
2077676102,3,0.39000002,7.1779504,-8.434951,1781187147678
2077676112,3,0.54495,6.9559503,-8.05395,1781187147689
2077676123,3,0.90000004,6.5659504,-7.1200504,1781187147700
2077676133,3,1.4119501,6.2110505,-6.4480505,1781187147709
2077676143,3,1.6969501,6.3790503,-6.0720005,1781187147719
2077676153,3,2.15205,6.2520003,-6.9979506,1781187147729
2077676163,3,2.2690501,5.98395,-7.4890504,1781187147739
2077676173,3,2.2999501,6.1990504,-7.8439503,1781187147749
2077676183,3,1.6870501,6.7909503,-8.84895,1781187147759
2077676193,3,0.67200005,8.27505,-9.417001,1781187147770
2077676203,3,-0.15495001,9.30195,-9.306001,1781187147780
2077676213,3,-0.354,8.967,-8.895,1781187147790
2077676223,3,0.0019500001,8.397,-8.3539505,1781187147800
2077676233,3,0.54495,7.6260004,-7.21605,1781187147810
2077676243,3,1.18005,7.293,-6.9430504,1781187147820
2077676254,3,1.2400501,6.8980503,-7.0680003,1781187147830
2077676264,3,0.96405005,6.5490003,-6.9340506,1781187147840
2077676274,3,0.82095003,6.1129503,-6.0000005,1781187147850
2077676284,3,0.77805007,6.20205,-5.61495,1781187147863
2077676294,3,0.62700003,6.3619504,-5.5260005,1781187147870
2077676304,3,0.43995002,6.8290505,-5.17395,1781187147881
2077676314,3,0.28395,7.3360505,-5.0280004,1781187147890
2077676324,3,-0.069000006,7.7359505,-5.0059505,1781187147902
2077676334,3,-0.43305,7.8610506,-4.7449503,1781187147912
2077676344,3,-0.57195,7.9420505,-4.4170504,1781187147920
2077676354,3,-0.50505,8.03295,-4.46505,1781187147932
2077676364,3,-0.45705003,8.268001,-4.6639504,1781187147942
2077676374,3,-0.43995002,8.63895,-4.6189504,1781187147951
2077676385,3,-0.54795,8.883,-4.6210504,1781187147961
2077676395,3,-1.0189501,9.019951,-4.42005,1781187147971
2077676405,3,-1.266,8.931001,-4.056,1781187147981
2077676415,3,-1.2730501,8.89305,-3.9910502,1781187147995
2077676425,3,-1.3039501,8.713051,-3.8260503,1781187148002
2077676435,3,-1.09605,8.34405,-3.7210503,1781187148012
2077676445,3,-0.90000004,7.8919506,-3.2950501,1781187148022
2077676455,3,-0.95505005,7.9009504,-3.1720502,1781187148033
2077676465,3,-1.0309501,8.12205,-3.4840503,1781187148043
2077676475,3,-1.3590001,8.22,-4.044,1781187148052
2077676485,3,-0.90000004,8.184,-3.8740501,1781187148062
2077676495,3,-0.71295005,8.24895,-3.2080503,1781187148072
2077676505,3,-0.79695004,8.57205,-2.18805,1781187148082
2077676516,3,-1.12695,9.99405,-3.0700502,1781187148092
2077676526,3,-2.2120502,10.389001,-3.8500502,1781187148102
2077676536,3,-3.3390002,9.63195,-4.45095,1781187148113
2077676546,3,-2.8630502,10.17105,-6.06195,1781187148125
2077676556,3,-1.33095,9.217951,-6.4020004,1781187148133
2077676566,3,-0.354,7.3360505,-6.294,1781187148142
2077676576,3,0.045,7.10895,-6.1800003,1781187148154
2077676586,3,0.402,7.7550006,-6.32595,1781187148163
2077676596,3,0.39705002,7.6600504,-5.5950003,1781187148172
2077676606,3,0.26295,7.4010005,-5.6650505,1781187148183
2077676616,3,-0.28905,7.4800506,-6.13395,1781187148193
2077676626,3,-0.54300004,7.5400505,-6.0379505,1781187148203
2077676636,3,-0.36600003,7.90605,-6.4960504,1781187148214
2077676647,3,-0.38295,7.662,-8.02305,1781187148225
2077676657,3,-0.15,7.0200005,-8.278951,1781187148233
2077676667,3,0.49800003,6.73995,-8.583,1781187148244
2077676677,3,0.85200006,6.7519503,-8.751,1781187148253
2077676687,3,0.66495,6.8940005,-8.45205,1781187148263
2077676697,3,0.08805001,7.2450004,-8.598001,1781187148274
2077676707,3,-0.39195,7.2979503,-7.8840003,1781187148283
2077676717,3,-0.43500003,6.9580503,-7.6039505,1781187148294
2077676727,3,-0.27705002,6.5269504,-7.8600006,1781187148305
2077676737,3,0.13800001,6.4819503,-8.233951,1781187148314
2077676747,3,0.342,6.7830005,-8.418,1781187148324
2077676757,3,0.45405003,6.6589503,-8.535001,1781187148333
2077676767,3,0.54105,6.6780005,-8.05395,1781187148343
2077676777,3,0.51405,6.7860003,-7.5589504,1781187148355
2077676788,3,0.51900005,6.6900005,-7.5730505,1781187148363
2077676798,3,0.49005002,6.78105,-7.15605,1781187148374
2077676808,3,0.42105,6.8239503,-6.8040004,1781187148384
2077676818,3,0.39900002,6.90105,-7.0129504,1781187148393
2077676828,3,0.41805002,6.8220005,-7.0530005,1781187148404
2077676838,3,0.01905,7.35795,-7.6380005,1781187148414
2077676848,3,-0.71295005,7.32,-8.581051,1781187148426
2077676858,3,-0.60300004,7.4230504,-7.4410505,1781187148434
2077676868,3,-0.21300001,7.176,-8.52105,1781187148444
2077676878,3,0.0019500001,6.8359504,-8.248051,1781187148454
2077676888,3,0.26805001,6.7519503,-8.02095,1781187148466
2077676898,3,1.1080501,6.25395,-6.9360003,1781187148475
2077676908,3,1.8259501,5.8330503,-5.11695,1781187148485
2077676919,3,1.08405,6.4860005,-6.22695,1781187148495
2077676929,3,0.58095,7.15005,-6.1410003,1781187148505
2077676939,3,0.35895002,7.1260505,-6.8479505,1781187148516
2077676949,3,0.15495001,7.2450004,-7.4869504,1781187148528
2077676959,3,0.12900001,7.1470504,-7.7380505,1781187148537
2077676969,3,0.30405003,6.73995,-6.8809505,1781187148545
2077676979,3,0.27705002,7.0420504,-8.32695,1781187148555
2077676989,3,0.177,7.3560004,-7.9350004,1781187148566
2077676999,3,0.08805001,7.3840504,-8.907001,1781187148575
2077677009,3,-0.19605,7.3440003,-10.37205,1781187148586
2077677019,3,-0.45000002,6.9270005,-10.329,1781187148596
2077677029,3,-0.24105,7.0249505,-11.643001,1781187148608
2077677039,3,0.076050006,7.056,-11.81295,1781187148618
2077677050,3,0.162,7.15395,-10.812,1781187148627
2077677060,3,0.058950003,6.939,-9.792001,1781187148641
2077677070,3,-0.043050002,6.762,-9.450001,1781187148646
2077677080,3,0.22500001,7.22205,-8.385,1781187148658
2077677090,3,0.40695003,7.7839503,-7.3549504,1781187148670
2077677100,3,0.22005,8.574,-6.3349504,1781187148678
2077677110,3,-0.102000006,11.16195,-5.1670504,1781187148687
2077677120,3,-0.26505002,16.95405,-4.9420505,1781187148696
2077677130,3,-0.39000002,23.590952,3.1570501,1781187148707
2077677140,3,0.77505004,27.630001,-1.5520501,1781187148717
2077677150,3,2.36295,20.233952,-10.092,1781187148727
2077677160,3,2.1400502,11.96205,-9.354,1781187148737
2077677170,3,1.8859501,11.349001,-6.6850505,1781187148747
2077677181,3,1.23705,10.794001,-8.11905,1781187148757
2077677191,3,0.49800003,11.055,-9.17205,1781187148768
2077677201,3,-0.26505002,11.988001,-8.689051,1781187148777
2077677211,3,-0.78705,12.225,-7.8220506,1781187148789
2077677221,3,-0.80595005,11.718,-7.5469503,1781187148797
2077677231,3,-0.49005002,10.68105,-6.7519503,1781187148809
2077677241,3,-0.11400001,10.35105,-5.79195,1781187148819
2077677251,3,0.20805001,10.35105,-5.7960005,1781187148828
2077677261,3,0.47595003,10.221001,-5.64795,1781187148838
2077677271,3,0.69105005,10.107,-5.7559505,1781187148847
2077677281,3,1.04595,10.2289505,-6.5410504,1781187148857
2077677291,3,0.984,10.444051,-6.8359504,1781187148868
2077677301,3,0.55695003,10.55895,-6.37095,1781187148878
2077677312,3,0.17205001,10.63605,-6.4020004,1781187148888
2077677322,3,-0.076050006,10.779,-6.7780504,1781187148898
2077677332,3,-0.23700002,10.5709505,-6.5479503,1781187148908
2077677342,3,-0.13800001,10.189951,-6.3570004,1781187148919
2077677352,3,-0.00405,9.817051,-6.1579504,1781187148928
2077677362,3,0.028050002,9.77595,-6.0600004,1781187148938
2077677372,3,-0.025950002,9.819,-5.8300505,1781187148948
2077677382,3,-0.162,9.769051,-6.0000005,1781187148959
2077677392,3,-0.37500003,9.90495,-6.6660004,1781187148968
2077677402,3,-0.55995005,9.826051,-6.8479505,1781187148979
2077677412,3,-0.64605004,9.538951,-6.5670004,1781187148989
2077677422,3,-0.62895006,9.205951,-6.1600504,1781187148999
2077677432,3,-0.52905005,9.06495,-5.72205,1781187149009
2077677442,3,-0.38295,8.85,-5.55,1781187149019
2077677453,3,-0.351,8.63895,-5.6190004,1781187149030
2077677463,3,-0.38505003,8.686951,-5.8369503,1781187149039
2077677473,3,-0.39900002,8.883,-6.4120502,1781187149049
2077677483,3,-0.54795,8.8279505,-6.52395,1781187149059
2077677493,3,-0.74205005,8.557051,-5.9659505,1781187149070
2077677503,3,-0.75795,8.410951,-5.5069504,1781187149079
2077677513,3,-0.63900006,8.227051,-5.2189503,1781187149090
2077677523,3,-0.483,8.0119505,-5.0230503,1781187149099
2077677533,3,-0.46605003,7.8199506,-4.9609504,1781187149109
2077677543,3,-0.49695003,7.5780005,-4.8169503,1781187149119
2077677553,3,-0.591,7.4080505,-4.88205,1781187149129
2077677563,3,-0.75405,7.2330003,-4.83195,1781187149140
2077677573,3,-0.85395,7.00605,-4.74795,1781187149151
2077677584,3,-0.98595005,6.6880503,-4.362,1781187149160
2077677594,3,-1.10595,6.498,-3.9790502,1781187149170
2077677604,3,-1.1010001,6.3430505,-3.7110002,1781187149180
2077677614,3,-1.113,5.98605,-3.6420002,1781187149190
2077677624,3,-1.1179501,5.64405,-3.62295,1781187149200
2077677634,3,-0.98805004,5.30595,-3.5700002,1781187149210
2077677644,3,-0.88305,5.0160003,-3.6109502,1781187149220
2077677654,3,-0.97395,4.6740003,-3.5340002,1781187149230
2077677664,3,-1.17495,4.353,-3.2920501,1781187149240
2077677674,3,-1.386,4.06605,-2.9260502,1781187149251
2077677684,3,-1.434,3.726,-2.53605,1781187149261
2077677694,3,-1.4460001,3.49095,-2.1379502,1781187149271
2077677704,3,-1.39995,3.1300502,-1.6140001,1781187149281
2077677715,3,-1.3549501,2.7250502,-1.2400501,1781187149290
2077677725,3,-1.30005,2.256,-0.93105006,1781187149301
2077677735,3,-1.25205,1.7839501,-0.76605004,1781187149311
2077677745,3,-1.1220001,1.3939501,-0.70905006,1781187149322
2077677755,3,-0.94305,1.2529501,-0.93900007,1781187149330
2077677765,3,-0.86595005,1.296,-1.3050001,1781187149341
2077677775,3,-0.92595005,1.4110501,-1.29495,1781187149351
2077677785,3,-1.1560501,1.6620001,-0.23700002,1781187149361
2077677795,3,-1.0510501,2.6130002,-0.16305001,1781187149372
2077677805,3,-1.0170001,2.5819502,-1.8049501,1781187149381
2077677815,3,-1.2349501,1.9930501,-2.7220502,1781187149392
2077677825,3,-1.2610501,2.1000001,-3.0360003,1781187149401
2077677835,3,-1.3039501,2.0380502,-2.469,1781187149411
2077677846,3,-1.3230001,1.7220001,-1.9369501,1781187149422
2077677856,3,-1.3429501,1.29795,-1.2790501,1781187149432
2077677866,3,-1.3740001,1.7509501,-0.79305005,1781187149442
2077677876,3,-1.383,2.73,-2.085,1781187149452
2077677886,3,-1.572,3.3450003,-3.5440502,1781187149462
2077677896,3,-1.9650002,3.9610503,-5.12895,1781187149472
2077677906,3,-2.46105,4.5930004,-5.55495,1781187149482
2077677916,3,-2.7259502,4.9300504,-4.9750504,1781187149492
2077677926,3,-2.72895,5.0950503,-3.55995,1781187149502
2077677936,3,-2.3029501,4.5930004,-2.38995,1781187149513
2077677946,3,-1.8960001,3.76395,-1.84395,1781187149523
2077677956,3,-1.8790501,3.66405,-1.5130501,1781187149533
2077677966,3,-2.04195,3.8100002,-1.8270001,1781187149545
2077677977,3,-2.18505,3.9199502,-1.8600001,1781187149553
2077677987,3,-2.1780002,3.4770002,-1.3050001,1781187149564
2077677997,3,-2.0680501,3.144,-0.95505005,1781187149573
2077678007,3,-2.0629501,3.051,-1.7500501,1781187149583
2077678017,3,-2.154,2.9550002,-2.9160001,1781187149594
2077678027,3,-2.18295,3.1009502,-4.0729504,1781187149603
2077678037,3,-2.16105,3.15405,-4.4940004,1781187149614
2077678047,3,-2.22105,3.8149502,-6.129,1781187149626
2077678057,3,-2.535,4.7320504,-10.944,1781187149634
2077678067,3,-3.0979502,5.8830004,-12.895051,1781187149644
2077678077,3,-3.6000001,7.8130503,-12.924001,1781187149654
2077678087,3,-4.5870004,11.13105,-13.626,1781187149664
2077678097,3,-5.57595,13.462951,-15.67695,1781187149675
2077678107,3,-6.426,14.76105,-18.025951,1781187149684
2077678118,3,-6.663,15.441001,-19.24695,1781187149694
2077678128,3,-5.985,14.2890005,-18.52905,1781187149704
2077678138,3,-5.3149505,13.05405,-18.04305,1781187149715
2077678148,3,-4.92,12.70695,-16.89105,1781187149724
2077678158,3,-4.5079503,12.41205,-16.48905,1781187149734
2077678168,3,-4.086,12.369,-15.80895,1781187149744
2077678178,3,-3.7699502,11.91195,-15.193951,1781187149754
2077678188,3,-3.61995,11.158051,-13.932001,1781187149764
2077678198,3,-3.9790502,10.651951,-13.897951,1781187149775
2077678208,3,-4.40205,10.21395,-13.09395,1781187149785
2077678218,3,-4.4770503,9.90495,-12.967051,1781187149795
2077678228,3,-4.434,9.489,-12.358951,1781187149805
2077678238,3,-4.36905,9.38595,-12.049951,1781187149815
2077678249,3,-4.30905,9.276,-11.883,1781187149825
2077678259,3,-4.3110003,9.41895,-11.691001,1781187149835
2077678269,3,-4.29705,9.56295,-11.48505,1781187149845
2077678279,3,-4.2850504,9.597,-11.349001,1781187149855
2077678289,3,-4.29495,9.69705,-11.739,1781187149865
2077678299,3,-4.359,9.835951,-11.953951,1781187149875
2077678309,3,-4.4100003,9.762,-11.866051,1781187149885
2077678319,3,-4.29195,9.60105,-11.623951,1781187149895
2077678329,3,-4.0669503,9.25905,-11.281951,1781187149905
2077678339,3,-3.8760002,8.983951,-10.942051,1781187149915
2077678349,3,-3.7369502,8.74695,-10.6380005,1781187149926
2077678359,3,-3.7080002,8.674951,-10.54695,1781187149936
2077678369,3,-3.7219503,8.577001,-10.741051,1781187149949
2077678380,3,-3.76095,8.565001,-10.99905,1781187149958
2077678390,3,-3.7819502,8.63895,-11.2890005,1781187149967
2077678400,3,-3.7800002,8.707951,-11.586,1781187149977
2077678410,3,-3.8130002,8.694,-11.559001,1781187149986
2077678420,3,-3.7849503,8.51895,-11.301001,1781187149996
2077678430,3,-3.8059502,8.380051,-11.001,1781187150006
2077678440,3,-3.8419502,8.160001,-10.54695,1781187150016
2077678450,3,-3.8490002,7.9230003,-10.329,1781187150026
2077678460,3,-3.9550502,7.7719502,-10.302,1781187150037
2077678470,3,-3.9859502,7.7839503,-10.324051,1781187150047
2077678480,3,-3.9930003,7.83405,-10.51095,1781187150056
2077678490,3,-3.9739501,7.7530503,-10.519951,1781187150067
2077678500,3,-3.8880002,7.5540004,-10.377001,1781187150077
2077678511,3,-3.801,7.2049503,-10.077001,1781187150087
2077678521,3,-3.696,6.8599505,-9.582001,1781187150097
2077678531,3,-3.7150502,6.6250505,-9.108001,1781187150107
2077678541,3,-3.8089502,6.5059505,-8.899051,1781187150117
2077678551,3,-3.9280503,6.4069505,-8.6650505,1781187150127
2077678561,3,-3.9520502,6.3310504,-8.51595,1781187150137
2077678571,3,-3.86595,6.2710505,-8.49705,1781187150147
2077678581,3,-3.7540503,6.1870503,-8.3539505,1781187150157
2077678591,3,-3.65805,6.1390505,-8.21205,1781187150168
2077678601,3,-3.6000001,5.9880004,-7.9540505,1781187150177
2077678611,3,-3.55995,5.7900004,-7.6140003,1781187150188
2077678621,3,-3.5070002,5.55495,-7.3020005,1781187150197
2077678631,3,-3.4660501,5.28,-6.9670506,1781187150208
2077678641,3,-3.4110003,4.97805,-6.543,1781187150217
2077678652,3,-3.2920501,4.54995,-5.9280005,1781187150227
2077678662,3,-3.1960502,4.09005,-5.4370503,1781187150237
2077678672,3,-3.0660002,3.7140002,-4.875,1781187150249
2077678682,3,-2.87295,3.2929502,-4.49595,1781187150258
2077678692,3,-2.83905,2.91195,-4.446,1781187150269
2077678702,3,-2.8200002,2.7130501,-4.362,1781187150278
2077678712,3,-2.8170002,2.4160502,-4.4869504,1781187150288
2077678722,3,-2.76705,2.1670501,-4.4440503,1781187150298
2077678732,3,-2.7259502,1.8510001,-4.35795,1781187150309
2077678742,3,-2.7840002,1.6530001,-4.27605,1781187150319
2077678752,3,-2.8819501,1.5690001,-4.6189504,1781187150329
2077678762,3,-3.1260002,1.5589501,-4.98705,1781187150338
2077678772,3,-3.38505,1.5499501,-5.313,1781187150348
2077678783,3,-3.76095,1.593,-5.45205,1781187150359
2077678793,3,-3.8590503,1.6650001,-5.3149505,1781187150368
2077678803,3,-3.6220503,1.2550501,-4.70505,1781187150378
2077678813,3,-3.1549501,0.77595,-4.1950502,1781187150389
2077678823,3,-3.078,0.513,-3.7450502,1781187150398
2077678833,3,-3.177,0.22605,-3.6319501,1781187150409
2077678843,3,-3.49005,0.81900007,-4.44105,1781187150418
2077678853,3,-4.03905,0.92700005,-5.3440504,1781187150430
2077678863,3,-4.7140503,0.82695,-5.4900002,1781187150439
2077678873,3,-5.058,0.657,-4.90605,1781187150449
2077678883,3,-4.72095,0.29700002,-4.1400003,1781187150459
2077678893,3,-4.2660003,0.51495004,-4.044,1781187150470
2077678903,3,-4.42395,1.0129501,-4.57305,1781187150480
2077678914,3,-4.8499503,1.1689501,-5.5360503,1781187150490
2077678924,3,-5.3310003,1.4470501,-6.7540503,1781187150500
2077678934,3,-5.892,1.7989501,-7.7980504,1781187150510
2077678944,3,-6.49305,2.08395,-8.55,1781187150520
2077678954,3,-6.86595,2.3160002,-8.811001,1781187150531
2077678964,3,-7.0360503,2.3760002,-8.691,1781187150540
2077678974,3,-6.9310503,2.2030501,-8.34195,1781187150551
2077678984,3,-6.663,2.05005,-7.7479506,1781187150561
2077678994,3,-6.3970504,2.028,-7.5730505,1781187150570
2077679004,3,-6.1980004,1.9450501,-7.695,1781187150580
2077679014,3,-6.2080503,1.9399501,-7.5610504,1781187150591
2077679024,3,-6.4140005,1.3800001,-7.22805,1781187150601
2077679034,3,-6.7510505,0.63705003,-6.46005,1781187150611
2077679045,3,-6.9019504,0.14400001,-4.7449503,1781187150621
2077679055,3,-9.49005,-0.112950005,5.2639503,1781187150630
2077679065,3,-13.239,1.485,6.729,1781187150644
2077679075,3,-12.868051,1.9230001,-8.215051,1781187150652
2077679085,3,-14.688001,3.9510002,-3.8839502,1781187150661
2077679095,3,-14.57295,6.54405,-5.7340503,1781187150671
2077679105,3,-15.04695,6.5610003,-6.91905,1781187150681
2077679115,3,-16.09305,5.8350005,-4.24695,1781187150691
2077679125,3,-17.322,7.01805,-5.346,1781187150702
2077679135,3,-18.59295,7.0630503,-5.91405,1781187150712
2077679145,3,-18.06105,5.45205,-5.2579503,1781187150722
2077679155,3,-16.813951,5.7010503,-3.5119503,1781187150731
2077679165,3,-14.544001,7.0320005,-2.36595,1781187150742
2077679176,3,-11.985001,7.7770505,-2.49705,1781187150752
2077679186,3,-10.44795,8.706,-3.25395,1781187150762
2077679196,3,-9.96405,9.24195,-2.5090501,1781187150772
2077679206,3,-9.354,9.37905,-3.3690002,1781187150782
2077679216,3,-9.162001,9.439051,-5.334,1781187150792
2077679226,3,-9.106951,8.68395,-7.2499504,1781187150802
2077679236,3,-9.00195,7.9159503,-8.260051,1781187150812
2077679246,3,-8.79105,7.281,-7.2190504,1781187150822
2077679256,3,-8.346001,6.22095,-6.90495,1781187150832
2077679266,3,-8.034,4.96605,-6.0139503,1781187150842
2077679276,3,-7.8430505,4.1670003,-5.571,1781187150853
2077679286,3,-7.93095,4.10895,-4.7239504,1781187150863
2077679296,3,-7.9410005,4.4749503,-4.95405,1781187150873
2077679306,3,-8.0779505,4.815,-5.2650003,1781187150883
2077679317,3,-8.02995,5.1769505,-5.8950005,1781187150893
2077679327,3,-7.1700006,5.94495,-6.5940003,1781187150903
2077679337,3,-5.6980505,5.88105,-8.17605,1781187150913
2077679347,3,-4.539,6.024,-9.56295,1781187150924
2077679357,3,-3.7030501,6.5940003,-9.23505,1781187150933
2077679367,3,-3.00195,7.25505,-8.124001,1781187150943
2077679377,3,-2.49705,8.397,-6.07905,1781187150954
2077679387,3,-2.40105,8.76795,-3.89595,1781187150964
2077679397,3,-1.8550501,8.70405,-3.07905,1781187150974
2077679407,3,-1.2780001,8.45895,-3.4360502,1781187150983
2077679417,3,-0.61695004,8.361,-4.18305,1781187150994
2077679427,3,-0.51405,8.313001,-3.9580503,1781187151005
2077679437,3,-0.28695002,7.9489503,-4.02495,1781187151015
2077679448,3,-0.24795002,7.8870006,-4.09905,1781187151024
2077679458,3,-0.67695004,8.038051,-3.6850502,1781187151035
2077679468,3,-1.30005,7.9350004,-3.2680502,1781187151045
2077679478,3,-1.7520001,8.14095,-3.4720502,1781187151054
2077679488,3,-2.01795,8.60295,-3.522,1781187151064
2077679498,3,-2.01495,8.995951,-3.6319501,1781187151075
2077679508,3,-1.8259501,9.17805,-3.9600003,1781187151084
2077679518,3,-1.6279501,9.43605,-4.09905,1781187151095
2077679528,3,-1.4670001,9.90795,-4.3500004,1781187151104
2077679538,3,-1.44105,10.65495,-4.4560504,1781187151116
2077679548,3,-1.4479501,11.007001,-4.1950502,1781187151125
2077679558,3,-1.33305,11.158051,-4.164,1781187151135
2077679568,3,-1.098,11.188951,-4.11795,1781187151145
2077679579,3,-0.87105006,11.203051,-4.06995,1781187151155
2077679589,3,-0.507,10.972951,-4.19205,1781187151165
2077679599,3,-0.016050002,10.582951,-4.39305,1781187151175
2077679609,3,0.30600002,10.156951,-4.362,1781187151185
2077679619,3,0.45900002,10.02495,-4.26405,1781187151195
2077679629,3,0.68700004,9.477,-3.8359501,1781187151205
2077679639,3,0.72495,9.012,-3.726,1781187151215
2077679649,3,0.63195,8.60805,-3.4140003,1781187151225
2077679659,3,0.555,8.245951,-3.38295,1781187151235
2077679669,3,0.48105,7.8750005,-3.4450502,1781187151246
2077679679,3,0.55005,7.6759505,-3.4770002,1781187151256
2077679689,3,0.59595,7.5349503,-3.69195,1781187151266
2077679699,3,0.53595,7.497,-3.8740501,1781187151277
2077679710,3,0.48600003,7.5810003,-4.0459504,1781187151286
2077679720,3,0.351,7.9300504,-4.2120004,1781187151296
2077679730,3,0.09,8.062051,-3.864,1781187151306
2077679740,3,-0.141,8.566951,-4.0459504,1781187151317
2077679750,3,-0.411,9.0390005,-4.221,1781187151325
2077679760,3,-0.615,9.288,-4.14405,1781187151336
2077679770,3,-0.711,9.585,-4.4560504,1781187151347
2077679780,3,-0.44700003,9.477,-4.3890004,1781187151357
2077679790,3,-0.19095,9.132,-3.9100502,1781187151366
2077679800,3,-0.022950001,9.14595,-4.18995,1781187151377
2077679810,3,0.14595,9.196951,-3.5340002,1781187151386
2077679820,3,0.27495003,9.187051,-3.28695,1781187151396
2077679830,3,0.19095,9.4480505,-3.0529501,1781187151407
2077679841,3,-0.00405,9.9529505,-2.39205,1781187151418
2077679851,3,0.079050004,9.82905,-2.9520001,1781187151426
2077679861,3,-0.045,9.357,-4.0030503,1781187151436
2077679871,3,-0.064050004,9.18,-4.2000003,1781187151447
2077679881,3,-0.19800001,9.040951,-3.9600003,1781187151458
2077679891,3,-0.11400001,8.74905,-4.27395,1781187151467
2077679901,3,-0.294,8.859,-4.45095,1781187151477
2077679911,3,-0.50895,9.084001,-4.0129504,1781187151487
2077679921,3,-0.53595,9.05805,-4.14195,1781187151497
2077679931,3,-0.54495,8.979,-4.28805,1781187151507
2077679941,3,-0.63195,8.988001,-4.11795,1781187151518
2077679951,3,-0.75405,9.0390005,-3.759,1781187151528
2077679961,3,-0.78495,9.027,-3.4330502,1781187151538
2077679971,3,-0.77805007,9.027,-3.153,1781187151548
2077679982,3,-0.87795,9.229951,-2.9860501,1781187151560
2077679992,3,-0.93600005,9.313951,-2.7850502,1781187151568
2077680002,3,-0.97605,9.40995,-2.76795,1781187151579
2077680012,3,-0.96000004,9.561001,-2.7250502,1781187151589
2077680022,3,-1.0530001,9.691951,-2.73405,1781187151598
2077680032,3,-0.98100007,9.72795,-2.6119502,1781187151609
2077680042,3,-0.84900004,9.649051,-2.7850502,1781187151618
2077680052,3,-0.70095,9.673051,-2.7889502,1781187151629
2077680062,3,-0.73005,9.642,-2.7889502,1781187151638
2077680072,3,-0.36600003,8.998051,-2.562,1781187151652
2077680082,3,-0.081,8.94795,-2.8129501,1781187151659
2077680092,3,-0.16695,9.22305,-2.67,1781187151669
2077680102,3,-0.294,9.228001,-2.4850502,1781187151679
2077680113,3,-0.15495001,9.205951,-2.832,1781187151689
2077680123,3,-0.043050002,9.561001,-3.48795,1781187151700
2077680133,3,-0.25305,9.879001,-3.9550502,1781187151710
2077680143,3,-0.48600003,10.284,-4.54005,1781187151719
2077680153,3,-0.67905,10.38405,-4.7449503,1781187151730
2077680163,3,-0.684,10.44705,-4.9440002,1781187151739
2077680173,3,-0.48105,10.26,-4.46295,1781187151749
2077680183,3,-0.23895001,10.21395,-4.77705,1781187151759
2077680193,3,-0.22695,10.408051,-4.6810503,1781187151769
2077680203,3,-0.18105,10.65705,-5.0539503,1781187151780
2077680213,3,-0.71505004,10.81995,-5.35395,1781187151791
2077680223,3,-1.04805,10.308001,-5.6910005,1781187151800
2077680233,3,-1.02195,9.835951,-6.25605,1781187151811
2077680244,3,-0.91905004,9.85305,-6.28305,1781187151820
2077680254,3,-0.70605004,9.382951,-5.61,1781187151830
2077680264,3,-0.70095,9.0390005,-4.2520504,1781187151840
2077680274,3,-1.029,8.98095,-4.39605,1781187151850
2077680284,3,-1.608,8.842051,-5.04195,1781187151860
2077680294,3,-1.6849501,8.60805,-4.15905,1781187151870
2077680304,3,-1.55805,8.007,-4.0459504,1781187151881
2077680314,3,-1.23195,7.96605,-4.0420504,1781187151890
2077680324,3,-1.182,7.734,-3.426,1781187151900
2077680334,3,-1.1220001,7.2570004,-2.87295,1781187151911
2077680344,3,-1.4670001,7.2790504,-2.1670501,1781187151921
2077680354,3,-1.917,8.562,-1.6380001,1781187151930
2077680364,3,-2.0659502,9.526951,-0.924,1781187151941
2077680375,3,-1.9080001,9.52995,-0.77295005,1781187151952
2077680385,3,-1.764,9.646951,-0.9580501,1781187151961
2077680395,3,-1.7160001,10.317,-1.44105,1781187151972
2077680405,3,-1.8690001,10.8820505,-1.24995,1781187151982
2077680415,3,-2.46105,11.46405,0.46800002,1781187151991
2077680425,3,-2.8290002,11.878051,1.6339501,1781187152001
2077680435,3,-3.1650002,11.598001,0.13305001,1781187152012
2077680445,3,-3.8760002,10.67895,-1.9080001,1781187152022
2077680455,3,-4.04295,10.17105,-4.2829504,1781187152031
2077680465,3,-3.5329502,9.975,-6.1990504,1781187152042
2077680475,3,-2.772,8.811001,-6.6439505,1781187152051
2077680485,3,-1.55595,7.8679504,-6.03105,1781187152062
2077680495,3,-0.68205005,6.7120504,-5.2170005,1781187152072
2077680506,3,-0.20295002,6.81195,-4.26405,1781187152081
2077680516,3,-0.18405001,7.4269505,-3.2389503,1781187152092
2077680526,3,-0.40395,7.662,-2.8489501,1781187152102
2077680536,3,-0.79695004,8.17905,-2.29095,1781187152112
2077680546,3,-1.21095,7.9609504,-2.3800502,1781187152122
2077680556,3,-1.2280501,7.5780005,-2.5879502,1781187152132
2077680566,3,-0.90000004,8.059051,-3.1650002,1781187152142
2077680576,3,-0.51900005,8.368051,-3.8359501,1781187152152
2077680586,3,-0.094950005,7.90395,-3.9310503,1781187152165
2077680596,3,0.32295,7.59495,-3.9150002,1781187152173
2077680606,3,0.57405,8.88105,-4.044,1781187152182
2077680616,3,0.56895,11.895,-5.4900002,1781187152194
2077680626,3,0.54795,13.581,-6.6940503,1781187152202
2077680636,3,0.96195006,16.30005,-8.99505,1781187152214
2077680647,3,1.6519501,15.91005,-9.77295,1781187152223
2077680657,3,2.3410501,14.65305,-9.63195,1781187152235
2077680667,3,3.04305,12.960001,-8.443951,1781187152244
2077680677,3,3.9640503,12.30195,-7.8700504,1781187152254
2077680687,3,4.52895,11.380051,-6.6060004,1781187152263
2077680697,3,4.6870503,9.754951,-4.73595,1781187152274
2077680707,3,4.6009502,8.038051,-3.4669502,1781187152283
2077680717,3,4.197,6.846,-3.3300002,1781187152293
2077680727,3,3.4470003,5.91405,-3.0289502,1781187152303
2077680737,3,2.5879502,5.4090004,-2.5210502,1781187152315
2077680747,3,1.8070501,4.8900003,-2.5519502,1781187152324
2077680757,3,1.11,4.48995,-2.69595,1781187152333
2077680767,3,0.44505003,4.20195,-2.38995,1781187152345
2077680778,3,-0.22905001,3.82695,-2.11695,1781187152354
2077680788,3,-0.82800007,3.5970001,-2.028,1781187152363
2077680798,3,-1.4980501,3.7570503,-1.9990501,1781187152375
2077680808,3,-2.45805,3.93195,-1.9060501,1781187152383
2077680818,3,-3.6430502,5.289,-2.5159502,1781187152393
2077680828,3,-5.01105,7.5520506,-3.4050002,1781187152404
2077680838,3,-6.1909504,10.750951,-4.7190003,1781187152415
2077680848,3,-6.9589505,12.06,-4.8169503,1781187152424
2077680858,3,-7.2130504,11.93805,-4.5799503,1781187152435
2077680868,3,-6.9019504,11.85,-4.40805,1781187152444
2077680878,3,-6.6600003,11.124001,-3.6700501,1781187152455
2077680888,3,-6.3300004,10.257001,-3.2920501,1781187152465
2077680898,3,-5.8290005,9.618,-3.4450502,1781187152475
2077680909,3,-5.3190002,9.42405,-3.18,1781187152485
2077680919,3,-4.8619504,9.372001,-2.70795,1781187152495
2077680929,3,-4.2010503,8.920951,-2.8279502,1781187152505
2077680939,3,-3.6409502,8.646001,-4.044,1781187152515
2077680949,3,-2.94195,8.316,-5.445,1781187152525
2077680959,3,-2.19,8.304001,-6.88605,1781187152536
2077680969,3,-1.5340501,8.38305,-7.5870004,1781187152546
2077680979,3,-1.434,9.10305,-7.0800004,1781187152555
2077680989,3,-1.31895,9.61095,-6.91905,1781187152565
2077680999,3,-0.84900004,9.56295,-7.0249505,1781187152576
2077681009,3,-0.31800002,9.472051,-7.12305,1781187152586
2077681019,3,0.16005,9.508051,-6.9979506,1781187152597
2077681029,3,0.51195,9.522,-6.53595,1781187152606
2077681040,3,0.76095,9.582001,-6.32595,1781187152616
2077681050,3,0.81105006,9.666,-6.0139503,1781187152626
2077681060,3,0.96900004,9.45495,-5.74095,1781187152638
2077681070,3,0.98100007,9.336,-5.29605,1781187152646
2077681080,3,0.95505005,9.09405,-4.887,1781187152656
2077681090,3,1.01505,8.719951,-4.3840504,1781187152666
2077681100,3,1.1730001,8.34405,-4.1059504,1781187152677
2077681110,3,1.1560501,8.20995,-4.1400003,1781187152687
2077681120,3,1.1580001,8.361,-4.6069503,1781187152696
2077681130,3,0.90000004,8.44005,-4.25505,1781187152706
2077681140,3,0.43500003,8.28705,-4.93905,1781187152717
2077681150,3,0.41400003,8.389951,-4.0219502,1781187152726
2077681160,3,0.33705002,9.0720005,-4.99905,1781187152737
2077681171,3,-0.33705002,9.843,-5.1259503,1781187152747
2077681181,3,-0.62205005,10.24995,-5.3200502,1781187152757
2077681191,3,-0.82305,10.425,-5.1259503,1781187152767
2077681201,3,-1.04595,9.679951,-4.518,1781187152777
2077681211,3,-1.28805,8.971951,-3.22305,1781187152787
2077681221,3,-1.845,9.187051,-2.334,1781187152797
2077681231,3,-2.403,9.670951,-2.8489501,1781187152807
2077681241,3,-3.0499501,10.36695,-2.6790001,1781187152817
2077681251,3,-3.246,10.557,-3.4450502,1781187152827
2077681261,3,-3.3349502,10.341001,-3.4330502,1781187152837
2077681271,3,-3.4690502,10.177951,-3.4669502,1781187152847
2077681281,3,-3.48795,9.72795,-3.4000502,1781187152857
2077681291,3,-3.32505,9.276,-3.31095,1781187152867
2077681301,3,-3.045,8.74695,-3.177,1781187152878
2077681312,3,-2.592,8.409,-2.93805,1781187152889
2077681322,3,-2.3100002,8.28195,-2.60295,1781187152898
2077681332,3,-2.14695,8.15505,-2.67705,1781187152908
2077681342,3,-2.16105,7.4080505,-1.6830001,1781187152918
2077681352,3,-2.07495,7.9590006,-1.59195,1781187152928
2077681362,3,-2.18805,8.481,-2.28705,1781187152938
2077681372,3,-2.217,8.410951,-2.6239502,1781187152949
2077681382,3,-2.04405,8.34195,-2.2080002,1781187152959
2077681392,3,-1.623,8.33205,-2.38695,1781187152968
2077681402,3,-1.3950001,8.466001,-2.53305,1781187152978
2077681412,3,-1.065,8.337001,-2.87805,1781187152989
2077681422,3,-0.684,8.481,-3.4650002,1781187153000
2077681432,3,-0.28005,8.493,-3.9750001,1781187153010
2077681443,3,0.17400001,8.292001,-4.3500004,1781187153019
2077681453,3,0.52095,7.8970504,-4.413,1781187153030
2077681463,3,0.83295006,7.8460503,-4.52295,1781187153039
2077681473,3,1.065,8.24895,-4.86,1781187153049
2077681483,3,1.434,8.88105,-6.0340505,1781187153059
2077681493,3,2.22405,8.376,-7.4440503,1781187153069
2077681503,3,2.80995,7.3170004,-7.2829504,1781187153079
2077681513,3,3.0949502,7.75995,-7.9230003,1781187153090
2077681523,3,3.2680502,8.517,-8.33205,1781187153100
2077681533,3,3.3730502,8.851951,-8.34405,1781187153109
2077681543,3,3.6480002,8.991,-8.004001,1781187153120
2077681553,3,3.7699502,9.0,-7.0680003,1781187153130
2077681563,3,3.9739501,8.731951,-6.32805,1781187153140
2077681574,3,3.9949503,8.871,-5.3700004,1781187153150
2077681584,3,3.7540503,9.184951,-4.4220004,1781187153160
2077681594,3,3.4060502,9.19005,-3.76395,1781187153170
2077681604,3,2.8459501,9.228001,-3.4380002,1781187153180
2077681614,3,2.12595,9.325951,-3.34995,1781187153191
2077681624,3,1.48905,9.096001,-3.46005,1781187153201
2077681634,3,1.02195,8.30805,-3.4290001,1781187153210
2077681644,3,0.78705,8.052,-3.62295,1781187153219
2077681654,3,0.51705,8.410951,-4.3240504,1781187153231
2077681664,3,0.22905001,9.184951,-5.346,1781187153242
2077681674,3,-0.10695001,9.798,-6.1009502,1781187153252
2077681684,3,-0.49695003,10.114051,-6.47205,1781187153260
2077681694,3,-0.87600005,10.111051,-6.6510005,1781187153271
2077681705,3,-1.2280501,9.934051,-6.3469505,1781187153282
2077681715,3,-1.5340501,9.76395,-5.87295,1781187153291
2077681725,3,-1.6800001,9.429001,-5.157,1781187153301
2077681735,3,-1.67295,9.11505,-4.506,1781187153311
2077681745,3,-1.6680001,8.887951,-3.7159503,1781187153321
2077681755,3,-1.644,8.79,-3.45,1781187153331
2077681765,3,-1.5679501,8.775001,-3.31395,1781187153342
2077681775,3,-1.4070001,8.80395,-3.3280501,1781187153351
2077681785,3,-1.1920501,8.887951,-3.5050502,1781187153361
2077681795,3,-1.0189501,8.983951,-3.7039502,1781187153371
2077681805,3,-0.81405,9.06,-3.8520002,1781187153381
2077681815,3,-0.65295005,9.151051,-4.01805,1781187153392
2077681825,3,-0.51900005,9.225,-4.2000003,1781187153402
2077681835,3,-0.39900002,9.325951,-4.4869504,1781187153412
2077681846,3,-0.30105,9.427051,-4.77705,1781187153422
2077681856,3,-0.201,9.462001,-4.8960004,1781187153432
2077681866,3,-0.049950004,9.40005,-4.88205,1781187153442
2077681876,3,0.097950004,9.336,-4.755,1781187153452
2077681886,3,0.22695,9.24495,-4.57095,1781187153462
2077681896,3,0.37305,9.192,-4.353,1781187153472
2077681906,3,0.47805002,9.19005,-4.1850004,1781187153482
2077681916,3,0.56895,9.19005,-4.149,1781187153492
2077681926,3,0.59595,9.1369505,-3.9910502,1781187153502
2077681936,3,0.57900006,9.052951,-3.8880002,1781187153513
2077681946,3,0.48600003,9.04605,-3.8400002,1781187153523
2077681956,3,0.29595003,9.07695,-3.759,1781187153533
2077681966,3,0.11400001,9.13395,-3.7039502,1781187153542
2077681977,3,-0.01905,9.175051,-3.7230003,1781187153552
2077681987,3,-0.17205001,9.142051,-3.7090502,1781187153563
2077681997,3,-0.25800002,9.120001,-3.6780002,1781187153574
2077682007,3,-0.33900002,9.118051,-3.6349502,1781187153583
2077682017,3,-0.39495003,9.213,-3.6679502,1781187153595
2077682027,3,-0.44505003,9.276,-3.6750002,1781187153605
2077682037,3,-0.48105,9.325951,-3.6660001,1781187153614
2077682047,3,-0.50505,9.37905,-3.5839503,1781187153623
2077682057,3,-0.507,9.37395,-3.5149503,1781187153634
2077682067,3,-0.507,9.525001,-3.522,1781187153644
2077682077,3,-0.483,9.606001,-3.5719502,1781187153654
2077682087,3,-0.46605003,9.735001,-3.7090502,1781187153665
2077682097,3,-0.37095,9.7900505,-3.7729502,1781187153677
2077682108,3,-0.31305,9.85995,-3.8119502,1781187153684
2077682118,3,-0.22695,9.901051,-3.8479502,1781187153695
2077682128,3,-0.165,9.87195,-3.7830002,1781187153704
2077682138,3,-0.07095,9.766951,-3.7110002,1781187153714
2077682148,3,-0.010950001,9.795,-3.62295,1781187153724
2077682158,3,0.03795,9.858001,-3.5749502,1781187153734
2077682168,3,0.055050004,9.931951,-3.61995,1781187153744
2077682178,3,0.06705,10.008,-3.7210503,1781187153754
2077682188,3,0.105000004,10.06305,-3.69705,1781187153765
2077682198,3,0.15,10.01595,-3.5839503,1781187153774
2077682208,3,0.17205001,9.946051,-3.4429502,1781187153785
2077682218,3,0.22500001,9.858001,-3.318,1781187153794
2077682228,3,0.26295,9.75,-3.2590501,1781187153805
2077682239,3,0.32805002,9.655951,-3.2710502,1781187153815
2077682249,3,0.39495003,9.55095,-3.3400502,1781187153825
2077682259,3,0.45405003,9.477,-3.4120502,1781187153836
2077682269,3,0.52395004,9.35505,-3.48795,1781187153845
2077682279,3,0.64395005,9.27795,-3.5700002,1781187153855
2077682289,3,0.72495,9.19005,-3.5479503,1781187153865
2077682299,3,0.82800007,9.144,-3.62295,1781187153876
2077682309,3,0.93105006,9.14595,-3.7039502,1781187153886
2077682319,3,1.0510501,9.20205,-3.8239503,1781187153895
2077682329,3,1.20105,9.217951,-3.9510002,1781187153906
2077682339,3,1.3549501,9.217951,-4.0750504,1781187153915
2077682349,3,1.5340501,9.204,-4.1059504,1781187153925
2077682359,3,1.66305,9.249001,-4.0009503,1781187153937
2077682370,3,1.7520001,9.297001,-3.936,1781187153948
2077682380,3,1.8139501,9.42405,-3.9150002,1781187153956
2077682390,3,1.8430501,9.56295,-3.9840002,1781187153967
2077682400,3,1.8859501,9.702001,-4.0729504,1781187153976
2077682410,3,1.9099501,9.714001,-4.089,1781187153986
2077682420,3,1.9200001,9.73095,-4.02,1781187153996
2077682430,3,1.86705,9.68805,-3.9070501,1781187154006
2077682440,3,1.8190501,9.64395,-3.7999501,1781187154017
2077682450,3,1.7830501,9.61305,-3.6799502,1781187154027
2077682460,3,1.77795,9.481951,-3.5170503,1781187154036
2077682470,3,1.8000001,9.283051,-3.3300002,1781187154047
2077682480,3,1.7880001,9.111,-3.0220501,1781187154057
2077682490,3,1.7760001,8.983951,-2.62695,1781187154067
2077682500,3,1.7329501,8.93295,-2.2120502,1781187154077
2077682511,3,1.7020501,8.821051,-1.7530501,1781187154087
2077682521,3,1.63995,8.644051,-1.1520001,1781187154097
2077682531,3,1.5820501,8.677051,-0.726,1781187154107
2077682541,3,1.48905,8.625,-0.393,1781187154117
2077682551,3,1.4580001,8.548051,-0.064950004,1781187154127
2077682561,3,1.4500501,8.48805,0.22395001,1781187154138
2077682571,3,1.4929501,8.502001,0.49395,1781187154147
2077682581,3,1.5510001,8.68395,0.66705,1781187154157
2077682591,3,1.62495,8.857051,0.76995003,1781187154170
2077682601,3,1.7760001,8.814,0.62595004,1781187154178
2077682611,3,1.9630501,8.845051,0.55905,1781187154188
2077682621,3,2.1660001,8.895,0.34395,1781187154198
2077682631,3,2.3749502,9.007951,0.022950001,1781187154208
2077682642,3,2.6119502,8.92905,-0.41400003,1781187154218
2077682652,3,2.8129501,8.862,-0.79005,1781187154228
2077682662,3,2.98305,8.694,-1.10895,1781187154238
2077682672,3,3.114,8.526,-1.35,1781187154249
2077682682,3,3.1720502,8.3869505,-1.4490001,1781187154258
2077682692,3,3.24795,8.337001,-1.542,1781187154268
2077682702,3,3.282,8.548051,-1.5010501,1781187154278
2077682712,3,3.3940501,8.839951,-1.57305,1781187154288
2077682722,3,3.3940501,9.24195,-1.6620001,1781187154298
2077682732,3,3.2580001,9.56295,-1.9390501,1781187154308
2077682742,3,2.9899502,9.85305,-2.22,1781187154318
2077682752,3,2.6790001,10.18605,-2.3800502,1781187154329
2077682762,3,2.394,10.51095,-2.217,1781187154339
2077682773,3,2.0370002,11.026051,-1.9540501,1781187154349
2077682783,3,1.6369501,11.47095,-1.7550001,1781187154359
2077682793,3,1.21095,11.718,-1.6690501,1781187154369
2077682803,3,0.82605004,11.574,-1.4989501,1781187154378
2077682813,3,0.507,11.34,-1.38195,1781187154389
2077682823,3,0.23700002,11.15295,-1.34595,1781187154399
2077682833,3,-0.022950001,11.067,-1.41795,1781187154409
2077682843,3,-0.27705002,10.9800005,-1.5010501,1781187154419
2077682853,3,-0.48105,10.894051,-1.5850501,1781187154429
2077682863,3,-0.63600004,10.758,-1.5319501,1781187154440
2077682873,3,-0.69105005,10.54695,-1.5010501,1781187154449
2077682883,3,-0.68205005,10.37205,-1.5469501,1781187154459
2077682893,3,-0.58395004,10.17405,-1.6900501,1781187154470
2077682904,3,-0.45000002,9.891001,-2.01105,1781187154480
2077682914,3,-0.19305001,9.691951,-2.229,1781187154490
2077682924,3,0.13095,9.486,-2.3850002,1781187154500
2077682934,3,0.38295,9.331051,-2.4490502,1781187154510
2077682944,3,0.61200005,9.192,-2.3149502,1781187154520
2077682954,3,0.837,9.051001,-2.11395,1781187154530
2077682964,3,1.0530001,8.859,-1.968,1781187154540
2077682974,3,1.2210001,8.72295,-1.863,1781187154550
2077682984,3,1.3980001,8.63895,-1.79295,1781187154561
2077682994,3,1.5799501,8.581051,-1.7569501,1781187154572
2077683004,3,1.6990501,8.538,-1.6350001,1781187154583
2077683014,3,1.6680001,8.61495,-1.5109501,1781187154592
2077683024,3,1.36905,8.72295,-1.6189501,1781187154601
2077683035,3,0.81405,8.81805,-1.6710001,1781187154611
2077683045,3,0.35595003,8.92605,-1.7190001,1781187154621
2077683055,3,0.069000006,8.979,-1.8169501,1781187154631
2077683065,3,-0.33705002,8.54595,-1.9920001,1781187154641
2077683075,3,-0.73695004,9.319051,-2.5879502,1781187154651
2077683085,3,-1.0669501,10.341001,-3.8119502,1781187154661
2077683095,3,-1.25205,10.55895,-4.257,1781187154671
2077683105,3,-1.4670001,10.441951,-5.10195,1781187154682
2077683115,3,-1.8259501,11.050051,-6.201,1781187154693
2077683125,3,-2.14695,11.767951,-6.951,1781187154702
2077683135,3,-2.3149502,12.024,-7.176,1781187154711
2077683145,3,-2.4150002,11.577001,-6.5599504,1781187154722
2077683155,3,-2.53005,11.040001,-5.82,1781187154732
2077683165,3,-2.7150002,10.55895,-4.83195,1781187154742
2077683176,3,-2.7120001,10.21395,-4.17105,1781187154753
2077683186,3,-2.5900502,10.44705,-4.4820004,1781187154762
2077683196,3,-2.403,10.51095,-5.2699504,1781187154772
2077683206,3,-2.1709502,10.126051,-5.23605,1781187154782
2077683216,3,-1.9480501,9.261001,-4.446,1781187154792
2077683226,3,-1.7070001,8.553,-3.49305,1781187154802
2077683236,3,-1.5630001,8.172,-2.9569502,1781187154812
2077683246,3,-1.50495,8.0449505,-2.7820501,1781187154822
2077683256,3,-1.3620001,7.9950004,-2.775,1781187154832
2077683266,3,-1.2589501,8.092951,-3.3619502,1781187154842
2077683276,3,-1.197,8.2560005,-3.9580503,1781187154853
2077683286,3,-1.2060001,8.349,-4.3050003,1781187154863
2077683296,3,-1.3789501,8.15295,-3.8760002,1781187154873
2077683307,3,-1.5460501,7.8079505,-3.3979502,1781187154883
2077683317,3,-1.8259501,7.5780005,-2.89995,1781187154894
2077683327,3,-2.049,7.3630505,-2.4880502,1781187154904
2077683337,3,-2.1730502,7.10895,-2.2459502,1781187154913
2077683347,3,-2.29095,7.0320005,-2.121,1781187154924
2077683357,3,-2.41995,7.2450004,-2.1450002,1781187154933
2077683367,3,-2.59695,7.5019503,-2.3370001,1781187154944
2077683377,3,-2.77005,7.8780003,-2.42295,1781187154954
2077683387,3,-2.9640002,8.59305,-2.433,1781187154964
2077683397,3,-3.1360502,9.778951,-2.3419502,1781187154974
2077683407,3,-3.1260002,10.936951,-2.421,1781187154984
2077683417,3,-2.9869502,12.12195,-2.7130501,1781187154995
2077683427,3,-2.5849502,13.129951,-3.1290002,1781187155004
2077683438,3,-1.8190501,13.320001,-3.4020002,1781187155014
2077683448,3,-1.0339501,12.71895,-3.8910003,1781187155024
2077683458,3,-0.294,11.932951,-4.45305,1781187155034
2077683468,3,0.46395,11.22,-4.6210504,1781187155044
2077683478,3,1.1179501,10.52595,-4.4610004,1781187155054
2077683488,3,1.62495,10.035001,-4.2910504,1781187155064
2077683498,3,1.9770001,9.711,-4.0030503,1781187155075
2077683508,3,2.262,9.56295,-3.6130502,1781187155087
2077683518,3,2.4510002,9.541051,-3.22005,1781187155094
2077683528,3,2.6140501,9.655951,-2.8950002,1781187155104
2077683538,3,2.76495,9.96,-2.5140002,1781187155115
2077683548,3,2.877,10.320001,-2.4109502,1781187155125
2077683558,3,2.97105,10.698001,-2.457,1781187155135
2077683569,3,3.04005,10.897051,-2.66205,1781187155145
2077683579,3,3.1669502,11.0140505,-2.7270002,1781187155155
2077683589,3,3.2959502,10.930051,-2.97105,1781187155165
2077683599,3,3.423,10.581,-3.1009502,1781187155175
2077683609,3,3.4710002,10.102051,-3.22305,1781187155186
2077683619,3,3.5530503,9.642,-3.21795,1781187155196
2077683629,3,3.5760002,9.26595,-3.0670502,1781187155206
2077683639,3,3.5790002,9.004951,-2.907,1781187155216
2077683649,3,3.5640001,8.751,-2.77005,1781187155225
2077683659,3,3.45705,8.656051,-2.7220502,1781187155235
2077683669,3,3.34695,8.6629505,-2.703,1781187155244
2077683679,3,3.1219501,8.86905,-2.7919502,1781187155255
2077683689,3,2.86995,9.111,-2.8590002,1781187155265
2077683700,3,2.60205,9.280951,-2.80395,1781187155275
2077683710,3,2.358,9.333,-2.6890502,1781187155286
2077683720,3,2.1420002,9.348001,-2.634,1781187155295
2077683730,3,1.9099501,9.325951,-2.6910002,1781187155306
2077683740,3,1.74195,9.225,-2.6839502,1781187155316
2077683750,3,1.6350001,9.052951,-2.73705,1781187155327
2077683760,3,1.5990001,8.941051,-2.83695,1781187155336
2077683770,3,1.5630001,8.854051,-2.98095,1781187155346
2077683780,3,1.539,8.811001,-3.1270502,1781187155356
2077683790,3,1.5769501,8.79195,-3.1249502,1781187155366
2077683800,3,1.6609501,8.833051,-3.00495,1781187155377
2077683810,3,1.7809501,8.91195,-2.844,1781187155386
2077683820,3,1.932,8.995951,-2.7630002,1781187155397
2077683830,3,2.0989501,9.015,-2.7919502,1781187155407
2077683841,3,2.2740002,8.92605,-2.87595,1781187155417
2077683851,3,2.4130502,8.81805,-2.91105,1781187155427
2077683861,3,2.5180502,8.707951,-2.9520001,1781187155437
2077683871,3,2.6520002,8.577001,-3.01005,1781187155447
2077683881,3,2.7220502,8.398951,-2.97105,1781187155458
2077683891,3,2.8249502,8.14305,-2.8830001,1781187155467
2077683901,3,2.8990502,7.97805,-2.80395,1781187155478
2077683911,3,3.00705,7.7910004,-2.7199502,1781187155487
2077683921,3,3.1189501,7.66905,-2.66205,1781187155497
2077683931,3,3.2770503,7.65705,-2.6530502,1781187155507
2077683941,3,3.4140003,7.6810503,-2.7439501,1781187155518
2077683951,3,3.4660501,7.7650504,-2.8950002,1781187155528
2077683961,3,3.4950001,7.9129505,-3.1030502,1781187155537
2077683972,3,3.42105,8.11695,-3.2920501,1781187155547
2077683982,3,3.2770503,8.347051,-3.39,1781187155558
2077683992,3,3.14295,8.533951,-3.3709502,1781187155568
2077684002,3,3.00195,8.73495,-3.426,1781187155578
2077684012,3,2.844,8.91195,-3.45495,1781187155588
2077684022,3,2.7529502,9.166051,-3.417,1781187155598
2077684032,3,2.59695,9.55305,-3.42105,1781187155608
2077684042,3,2.42505,10.071,-3.4290001,1781187155619
2077684052,3,2.22405,10.56105,-3.4020002,1781187155628
2077684062,3,1.9720501,11.00205,-3.3589501,1781187155638
2077684072,3,1.67505,11.15505,-3.2680502,1781187155649
2077684082,3,1.4260501,11.172001,-3.0649502,1781187155659
2077684092,3,1.302,11.203051,-2.95005,1781187155670
2077684103,3,1.1920501,11.13405,-2.9550002,1781187155680
2077684113,3,1.1340001,10.83405,-3.0600002,1781187155690
2077684123,3,1.09095,10.51095,-3.1680002,1781187155699
2077684133,3,1.0530001,10.104,-3.1390502,1781187155709
2077684143,3,1.01205,9.807,-3.1320002,1781187155720
2077684153,3,1.00695,9.58905,-3.0859501,1781187155729
2077684163,3,1.0890001,9.36705,-3.1030502,1781187155739
2077684173,3,1.2040501,9.192,-3.0700502,1781187155750
2077684183,3,1.44105,9.05805,-3.04095,1781187155759
2077684193,3,1.67805,8.971951,-3.0700502,1781187155770
2077684203,3,1.82895,8.875951,-3.0930002,1781187155779
2077684213,3,1.9650002,8.811001,-3.07695,1781187155790
2077684223,3,2.0029502,8.814,-3.0889502,1781187155800
2077684234,3,1.9699501,8.875951,-3.07695,1781187155810
2077684244,3,1.8690001,8.983951,-3.1369503,1781187155820
2077684254,3,1.7310001,9.09405,-3.2040002,1781187155830
2077684264,3,1.5679501,9.213,-3.21795,1781187155840
2077684274,3,1.3740001,9.27795,-3.11505,1781187155850
2077684284,3,1.17495,9.349951,-2.943,1781187155860
2077684294,3,0.9670501,9.41205,-2.7799501,1781187155870
2077684304,3,0.71805006,9.508051,-2.7150002,1781187155880
2077684314,3,0.49995002,9.621,-2.6239502,1781187155890
2077684324,3,0.30405003,9.799951,-2.56695,1781187155900
2077684334,3,0.21000001,9.913051,-2.4709501,1781187155911
2077684344,3,0.24405001,10.012951,-2.35095,1781187155920
2077684354,3,0.30405003,10.090051,-2.25495,1781187155931
2077684364,3,0.45000002,10.144951,-2.28705,1781187155941
2077684375,3,0.61200005,10.200001,-2.457,1781187155953
2077684385,3,0.82800007,10.240951,-2.6790001,1781187155961
2077684395,3,1.02195,10.19505,-2.8470001,1781187155971
2077684405,3,1.194,10.2960005,-2.8950002,1781187155981
2077684415,3,1.3980001,10.269,-2.871,1781187155991
2077684425,3,1.57305,10.23795,-2.7820501,1781187156001
2077684435,3,1.7350501,10.16895,-2.70795,1781187156011
2077684445,3,1.8169501,9.927,-2.69595,1781187156021
2077684455,3,1.8100501,9.622951,-2.7130501,1781187156031
2077684465,3,1.7329501,9.38805,-2.7510002,1781187156042
2077684475,3,1.6060501,9.217951,-2.7850502,1781187156051
2077684485,3,1.4599501,9.12705,-2.8470001,1781187156062
2077684495,3,1.25205,9.07905,-2.9260502,1781187156071
2077684506,3,1.0510501,9.154051,-3.0240002,1781187156082
2077684516,3,0.84495,9.307051,-3.1339502,1781187156092
2077684526,3,0.65805006,9.502951,-3.18195,1781187156102
2077684536,3,0.47100002,9.723001,-3.1320002,1781187156112
2077684546,3,0.31800002,9.90495,-3.1750503,1781187156122
2077684556,3,0.10005,10.02495,-3.31095,1781187156132
2077684566,3,-0.10695001,10.047001,-3.4120502,1781187156142
2077684576,3,-0.27705002,10.00605,-3.4740002,1781187156152
2077684586,3,-0.41595003,9.91695,-3.4669502,1781187156162
2077684596,3,-0.49305,9.73995,-3.4290001,1781187156173
2077684606,3,-0.51195,9.58005,-3.3760502,1781187156182
2077684616,3,-0.48795003,9.41205,-3.3420002,1781187156192
2077684626,3,-0.46905002,9.307051,-3.34695,1781187156203
2077684637,3,-0.44205,9.273001,-3.42405,1781187156214
2077684647,3,-0.423,9.27105,-3.4789503,1781187156223
2077684657,3,-0.42105,9.22095,-3.4980001,1781187156232
2077684667,3,-0.402,9.187051,-3.5170503,1781187156243
2077684677,3,-0.36105,9.11505,-3.4450502,1781187156255
2077684687,3,-0.34395,9.016951,-3.285,1781187156264
2077684697,3,-0.30795002,8.93295,-3.0960002,1781187156274
2077684707,3,-0.294,8.895,-2.9520001,1781187156284
2077684717,3,-0.27705002,9.0,-2.87595,1781187156293
2077684727,3,-0.31995,9.237,-2.8609502,1781187156303
2077684737,3,-0.38505003,9.474,-2.8969502,1781187156313
2077684747,3,-0.44205,9.640051,-3.00195,1781187156323
2077684757,3,-0.49995002,9.714001,-3.07695,1781187156333
2077684768,3,-0.555,9.666,-3.1050003,1781187156344
2077684778,3,-0.58395004,9.54405,-3.0910501,1781187156354
2077684788,3,-0.59805006,9.37605,-3.1200001,1781187156364
2077684798,3,-0.60495,9.216001,-3.1750503,1781187156374
2077684808,3,-0.66705,9.14595,-3.2280002,1781187156384
2077684818,3,-0.72495,9.108001,-3.18195,1781187156394
2077684828,3,-0.79905003,9.09405,-3.1390502,1781187156405
2077684838,3,-0.90900004,9.036,-3.14595,1781187156414
2077684848,3,-1.005,9.010051,-3.2010002,1781187156425
2077684858,3,-1.0860001,9.003,-3.2370002,1781187156435
2077684868,3,-1.1179501,9.084001,-3.3259501,1781187156445
2077684878,3,-1.1149501,9.229951,-3.3259501,1781187156455
2077684888,3,-0.93600005,9.42405,-3.3589501,1781187156465
2077684899,3,-0.711,9.462001,-3.3930001,1781187156475
2077684909,3,-0.507,9.4150505,-3.45495,1781187156485
2077684919,3,-0.34905002,9.526951,-3.4810503,1781187156495
2077684929,3,-0.26805001,9.817051,-3.4960501,1781187156505
2077684939,3,-0.18105,10.092,-3.4360502,1781187156516
2077684949,3,-0.07395,10.209001,-3.354,1781187156526
2077684959,3,0.07395,10.176001,-3.2440503,1781187156535
2077684969,3,0.20295002,10.03005,-3.14595,1781187156546
2077684979,3,0.32505003,9.868951,-3.117,1781187156556
2077684989,3,0.42105,9.703951,-3.15105,1781187156565
2077684999,3,0.43500003,9.58695,-3.2350502,1781187156576
2077685009,3,0.42600003,9.457951,-3.357,1781187156587
2077685019,3,0.39000002,9.340051,-3.4309502,1781187156596
2077685029,3,0.36105,9.217951,-3.4360502,1781187156605
2077685040,3,0.31305,9.172951,-3.354,1781187156615
2077685050,3,0.26505002,9.19005,-3.22305,1781187156626
2077685060,3,0.19305001,9.240001,-3.108,1781187156636
2077685070,3,0.13605,9.26895,-2.9620502,1781187156653
2077685080,3,0.07095,9.333,-2.8540502,1781187156655
2077685090,3,-0.033,9.37395,-2.8660502,1781187156666
2077685100,3,-0.15795001,9.46695,-2.8470001,1781187156675
2077685110,3,-0.28005,9.462001,-2.8230002,1781187156686
2077685120,3,-0.34695002,9.489,-2.8210502,1781187156695
2077685130,3,-0.39900002,9.4789505,-2.7529502,1781187156706
2077685140,3,-0.43005002,9.52995,-2.73405,1781187156716
2077685150,3,-0.43500003,9.53205,-2.74095,1781187156727
2077685160,3,-0.43005002,9.573001,-2.7220502,1781187156737
2077685171,3,-0.44205,9.55095,-2.73195,1781187156747
2077685181,3,-0.44505003,9.55605,-2.6940002,1781187156757
2077685191,3,-0.45705003,9.54405,-2.6479502,1781187156767
2077685201,3,-0.45405003,9.522,-2.6100001,1781187156777
2077685211,3,-0.43305,9.484051,-2.5879502,1781187156787
2077685221,3,-0.402,9.43395,-2.5879502,1781187156798
2077685231,3,-0.38505003,9.42195,-2.60295,1781187156807
2077685241,3,-0.35595003,9.348001,-2.5450501,1781187156817
2077685251,3,-0.32700002,9.340051,-2.52795,1781187156827
2077685261,3,-0.31800002,9.324,-2.4880502,1781187156837
2077685271,3,-0.30600002,9.280951,-2.49495,1781187156847
2077685281,3,-0.33900002,9.273001,-2.5140002,1781187156858
2077685291,3,-0.36795002,9.297001,-2.47305,1781187156868
2077685302,3,-0.42600003,9.394951,-2.433,1781187156878
2077685312,3,-0.47595003,9.51795,-2.42295,1781187156888
2077685322,3,-0.49695003,9.604051,-2.3730001,1781187156898
2077685332,3,-0.50505,9.622951,-2.301,1781187156909
2077685342,3,-0.51705,9.606001,-2.22705,1781187156918
2077685352,3,-0.48795003,9.604051,-2.16,1781187156928
2077685362,3,-0.45405003,9.658951,-2.1690001,1781187156938
2077685372,3,-0.40395,9.769051,-2.28705,1781187156949
2077685382,3,-0.35595003,9.823951,-2.47305,1781187156959
2077685392,3,-0.25305,9.807,-2.6170502,1781187156969
2077685402,3,-0.11400001,9.75,-2.6820002,1781187156978
2077685412,3,-0.034950003,9.73305,-2.70795,1781187156988
2077685422,3,0.07395,9.72795,-2.7610502,1781187156999
2077685433,3,0.19605,9.649051,-2.95005,1781187157009
2077685443,3,0.28905,9.522,-3.2629502,1781187157019
2077685453,3,0.36105,9.54405,-3.62295,1781187157029
2077685463,3,0.43995002,9.77595,-3.80205,1781187157039
2077685473,3,0.52905005,10.200001,-4.0339503,1781187157049
2077685483,3,0.66495,10.66905,-4.19205,1781187157059
2077685493,3,0.768,11.04705,-4.386,1781187157069
2077685503,3,0.804,11.481001,-4.54395,1781187157079
2077685513,3,0.804,12.015,-4.5799503,1781187157090
2077685523,3,0.85905004,12.703951,-4.54005,1781187157099
2077685533,3,0.9979501,13.468051,-4.4869504,1781187157110
2077685543,3,1.182,14.224951,-4.5589504,1781187157120
2077685553,3,1.3450501,14.878051,-4.7190003,1781187157130
2077685564,3,1.419,15.367051,-4.8289504,1781187157140
2077685574,3,1.28295,15.541051,-4.638,1781187157150
2077685584,3,1.1010001,15.891001,-3.8160002,1781187157160
2077685594,3,0.837,15.76605,-2.6190002,1781187157170
2077685604,3,0.55995005,14.746051,-1.7860501,1781187157181
2077685614,3,-0.025950002,13.36995,-1.6620001,1781187157190
2077685624,3,-0.65805006,12.340051,-1.389,1781187157200
2077685634,3,-0.94005007,11.22,-1.07505,1781187157210
2077685644,3,-1.2900001,10.34805,-0.54795,1781187157221
2077685654,3,-1.59195,9.75195,-0.37095,1781187157230
2077685664,3,-1.9080001,9.477,0.13800001,1781187157240
2077685674,3,-2.2069502,9.55605,0.58995,1781187157250
2077685684,3,-2.35305,9.558001,1.00695,1781187157261
2077685694,3,-2.367,9.56805,1.3080001,1781187157271
2077685705,3,-2.3479502,9.63195,1.36395,1781187157281
2077685715,3,-2.2069502,9.63195,1.08105,1781187157291
2077685725,3,-1.8430501,9.477,0.46305,1781187157301
2077685735,3,-1.33305,9.348001,-0.079050004,1781187157311
2077685745,3,-0.86595005,9.394951,-0.47205,1781187157322
2077685755,3,-0.49995002,9.55605,-0.60300004,1781187157331
2077685765,3,-0.21300001,9.726001,-0.47205,1781187157342
2077685775,3,0.076050006,9.625051,-0.36405003,1781187157351
2077685785,3,0.34905002,9.321,-0.34305,1781187157361
2077685795,3,0.52605003,8.94495,-0.51495004,1781187157371
2077685805,3,0.711,8.57205,-0.615,1781187157381
2077685815,3,0.91200006,8.31105,-0.70905006,1781187157392
2077685825,3,1.08405,8.127001,-0.75405,1781187157402
2077685836,3,1.2250501,8.050051,-0.79305005,1781187157412
2077685846,3,1.3759501,8.088,-0.89595,1781187157422
2077685856,3,1.5130501,8.200951,-1.1920501,1781187157432
2077685866,3,1.6540501,8.364,-1.5640501,1781187157442
2077685876,3,1.7880001,8.49495,-1.9350001,1781187157452
2077685886,3,1.8910501,8.60505,-2.1090002,1781187157462
2077685896,3,1.9200001,8.644051,-2.05395,1781187157472
2077685906,3,1.8169501,8.62905,-1.8079501,1781187157482
2077685916,3,1.575,8.625,-1.51995,1781187157492
2077685926,3,1.33305,8.57205,-1.4130001,1781187157502
2077685936,3,1.2229501,8.548051,-1.473,1781187157513
2077685946,3,1.1869501,8.634001,-1.674,1781187157522
2077685956,3,1.1560501,8.74695,-1.8870001,1781187157533
2077685967,3,1.1370001,8.908951,-2.09295,1781187157543
2077685977,3,1.125,9.087001,-2.184,1781187157555
2077685987,3,1.1080501,9.24705,-2.16405,1781187157563
2077685997,3,1.0669501,9.360001,-2.13105,1781187157574
2077686007,3,1.05795,9.324,-2.08305,1781187157586
2077686017,3,1.0720501,9.273001,-2.04495,1781187157593
2077686027,3,1.1700001,9.25695,-2.01795,1781187157603
2077686037,3,1.2559501,9.21105,-2.08095,1781187157614
2077686047,3,1.386,9.237,-2.18805,1781187157623
2077686057,3,1.51005,9.193951,-2.4130502,1781187157634
2077686067,3,1.6519501,9.052951,-2.5549502,1781187157645
2077686077,3,1.7539501,8.971951,-2.73405,1781187157655
2077686087,3,1.8169501,8.80605,-2.7850502,1781187157663
2077686098,3,1.8529501,8.65995,-2.7460501,1781187157674
2077686108,3,1.8769501,8.581051,-2.70105,1781187157685
2077686118,3,1.8739501,8.48595,-2.63895,1781187157693
2077686128,3,1.86705,8.434951,-2.595,1781187157704
2077686138,3,1.8550501,8.46195,-2.607,1781187157714
2077686148,3,1.7899501,8.50695,-2.69805,1781187157723
2077686158,3,1.7260501,8.58405,-2.77305,1781187157733
2077686168,3,1.6159501,8.674951,-2.8159502,1781187157744
2077686178,3,1.5130501,8.77095,-2.832,1781187157755
2077686188,3,1.383,8.895,-2.8300502,1781187157765
2077686198,3,1.2280501,8.995951,-2.8519502,1781187157774
2077686208,3,1.113,9.075001,-2.87295,1781187157785
2077686218,3,1.01205,9.142051,-2.9190001,1781187157795
2077686228,3,0.86895007,9.151051,-3.0289502,1781187157805
2077686239,3,0.71805006,9.1060505,-3.14895,1781187157815
2077686249,3,0.59805006,9.03405,-3.1990502,1781187157825
2077686259,3,0.51195,8.863951,-3.3349502,1781187157835
2077686269,3,0.52905005,8.7630005,-3.48795,1781187157845
2077686279,3,0.55305004,8.610001,-3.7020001,1781187157855
2077686289,3,0.56700003,8.490001,-3.8860502,1781187157865
2077686299,3,0.55995005,8.40705,-4.10895,1781187157875
2077686309,3,0.53805,8.45505,-4.224,1781187157885
2077686319,3,0.51405,8.536051,-4.3050003,1781187157895
2077686329,3,0.462,8.677051,-4.42695,1781187157906
2077686339,3,0.43005002,8.83005,-4.4820004,1781187157916
2077686349,3,0.43800002,9.052951,-4.518,1781187157925
2077686359,3,0.507,9.228001,-4.5199504,1781187157937
2077686370,3,0.615,9.348001,-4.52295,1781187157946
2077686380,3,0.78705,9.37395,-4.5280504,1781187157956
2077686390,3,0.9480001,9.405001,-4.5079503,1781187157967
2077686400,3,1.029,9.352051,-4.59705,1781187157976
2077686410,3,1.1149501,9.319051,-4.67805,1781187157986
2077686420,3,1.1509501,9.229951,-4.7239504,1781187157996
2077686430,3,1.12695,9.187051,-4.7530503,1781187158006
2077686440,3,1.05495,9.151051,-4.77705,1781187158016
2077686450,3,0.92595005,9.06705,-4.743,1781187158026
2077686460,3,0.77295005,8.95995,-4.7310004,1781187158036
2077686470,3,0.60795003,8.811001,-4.7380505,1781187158046
2077686480,3,0.44205,8.694,-4.7790003,1781187158057
2077686490,3,0.19800001,8.65995,-4.73595,1781187158067
2077686501,3,-0.061950002,8.6959505,-4.7689505,1781187158077
2077686511,3,-0.28395,8.839951,-4.8700504,1781187158087
2077686521,3,-0.44205,8.983951,-5.02995,1781187158097
2077686531,3,-0.531,9.096001,-5.2429504,1781187158107
2077686541,3,-0.58395004,9.12705,-5.3700004,1781187158117
2077686551,3,-0.59805006,9.132,-5.39895,1781187158127
2077686561,3,-0.56505,9.10305,-5.2720504,1781187158137
2077686571,3,-0.51900005,9.036,-5.1400504,1781187158147
2077686581,3,-0.43995002,8.92905,-4.98705,1781187158157
2077686591,3,-0.41400003,8.845051,-4.8169503,1781187158169
2077686601,3,-0.39900002,8.859,-4.7190003,1781187158178
2077686611,3,-0.44505003,8.920951,-4.7190003,1781187158187
2077686621,3,-0.49500003,9.055051,-4.848,1781187158197
2077686632,3,-0.50205004,9.118051,-4.9750504,1781187158209
2077686642,3,-0.46395,9.13395,-5.064,1781187158218
2077686652,3,-0.35595003,9.05805,-5.109,1781187158228
2077686662,3,-0.246,8.90505,-5.109,1781187158238
2077686672,3,-0.14595,8.8279505,-5.0950503,1781187158247
2077686682,3,-0.078,8.76105,-5.20305,1781187158257
2077686692,3,-0.058950003,8.698951,-5.26695,1781187158268
2077686702,3,-0.069000006,8.613001,-5.2000504,1781187158278
2077686712,3,-0.07095,8.466001,-5.06895,1781187158288
2077686722,3,-0.07395,8.3230505,-4.96605,1781187158298
2077686732,3,-0.078,8.20605,-5.0160003,1781187158308
2077686742,3,-0.057000004,8.056951,-5.1400504,1781187158319
2077686752,3,-0.061950002,7.9110003,-5.241,1781187158329
2077686763,3,-0.09,7.8540006,-5.3440504,1781187158339
2077686773,3,-0.13395001,7.8940506,-5.4880505,1781187158349
2077686783,3,-0.177,7.9950004,-5.5999503,1781187158359
2077686793,3,-0.26505002,8.148001,-5.598,1781187158369
2077686803,3,-0.34905002,8.3560505,-5.5090504,1781187158379
2077686813,3,-0.44205,8.529,-5.3700004,1781187158390
2077686823,3,-0.50505,8.677051,-5.27505,1781187158399
2077686833,3,-0.54795,8.851951,-5.1859503,1781187158410
2077686843,3,-0.53805,9.03405,-5.0779505,1781187158419
2077686853,3,-0.51705,9.20895,-5.0230503,1781187158429
2077686863,3,-0.49995002,9.3810005,-4.96605,1781187158440
2077686873,3,-0.46605003,9.451051,-4.93905,1781187158449
2077686883,3,-0.423,9.474,-4.93905,1781187158460
2077686893,3,-0.43500003,9.474,-4.97805,1781187158470
2077686904,3,-0.43995002,9.37605,-4.9729505,1781187158480
2077686914,3,-0.51405,9.23295,-4.95405,1781187158491
2077686924,3,-0.56700003,9.04605,-4.9009504,1781187158501
2077686934,3,-0.56700003,8.93595,-4.8769503,1781187158510
2077686944,3,-0.54795,8.883,-4.91505,1781187158521
2077686954,3,-0.51705,8.91705,-4.9729505,1781187158530
2077686964,3,-0.53295004,8.842051,-5.0350504,1781187158540
2077686974,3,-0.52905005,8.698951,-5.1139503,1781187158552
2077686984,3,-0.53595,8.644051,-5.2000504,1781187158560
2077686994,3,-0.54105,8.59605,-5.30595,1781187158573
2077687004,3,-0.55695003,8.674951,-5.3629503,1781187158581
2077687014,3,-0.53805,8.6959505,-5.2510505,1781187158590
2077687024,3,-0.51195,8.67195,-5.0830503,1781187158601
2077687035,3,-0.44505003,8.694,-4.88205,1781187158611
2077687045,3,-0.39900002,8.81595,-4.7959504,1781187158622
2077687055,3,-0.37800002,9.016951,-4.77405,1781187158631
2077687065,3,-0.351,9.168,-4.7910004,1781187158641
2077687075,3,-0.29895002,9.187051,-4.71705,1781187158651
2077687085,3,-0.26505002,9.06,-4.62795,1781187158661
2077687095,3,-0.22500001,8.93805,-4.61595,1781187158673
2077687105,3,-0.186,8.863951,-4.6260004,1781187158682
