icm4n607_acc,iven_sense,2026-06-11_19-12-34.865_Active 10 Pro
imuTimestamp,accuracy(more=better),acc_x[m/s^2],acc_y[m/s^2],acc_z[m/s^2],utcTimestamp(millis)
2084886475,3,6.426,2.028,6.6520505,1781194358052
2084886485,3,6.4180503,2.02095,6.60195,1781194358062
2084886495,3,6.438,1.9729501,6.6240005,1781194358072
2084886505,3,6.4450502,1.9020001,6.6720004,1781194358083
2084886515,3,6.4570503,1.8250501,6.7170005,1781194358092
2084886526,3,6.471,1.7890501,6.7530003,1781194358102
2084886536,3,6.46395,1.7890501,6.8149505,1781194358113
2084886546,3,6.4399505,1.8270001,6.846,1781194358122
2084886556,3,6.43305,1.899,6.9799504,1781194358132
2084886566,3,6.426,1.8900001,7.0639505,1781194358142
2084886576,3,6.42105,1.79595,7.1190004,1781194358153
2084886586,3,6.426,1.72905,7.1740503,1781194358162
2084886596,3,6.4420505,1.6840501,7.1530504,1781194358172
2084886606,3,6.4470005,1.7119501,7.0789504,1781194358183
2084886616,3,6.4450502,1.7719501,7.0090504,1781194358193
2084886626,3,6.4450502,1.866,6.91095,1781194358203
2084886636,3,6.4470005,1.9260001,6.8200502,1781194358213
2084886646,3,6.438,1.9300501,6.741,1781194358222
2084886656,3,6.4350004,1.9039501,6.7510505,1781194358233
2084886667,3,6.4279504,1.8370501,6.84105,1781194358244
2084886677,3,6.4090505,1.8079501,6.91305,1781194358253
2084886687,3,6.40605,1.8030001,6.9370503,1781194358263
2084886697,3,6.39195,1.8780001,6.8299503,1781194358272
2084886707,3,6.43305,1.9590001,6.6480002,1781194358286
2084886717,3,6.5170503,1.983,6.4540505,1781194358293
2084886727,3,6.6220503,1.9570501,6.2910004,1781194358303
2084886737,3,6.7060504,1.8730501,6.2119503,1781194358314
2084886747,3,6.70095,1.77495,6.2719502,1781194358325
2084886757,3,6.6889505,1.7629501,6.4420505,1781194358334
2084886767,3,6.6049504,1.81095,6.6070504,1781194358345
2084886777,3,6.53595,1.8940501,6.6720004,1781194358354
2084886787,3,6.4540505,1.983,6.6450005,1781194358364
2084886798,3,6.399,2.043,6.54195,1781194358375
2084886808,3,6.3780003,2.091,6.4870505,1781194358385
2084886818,3,6.327,2.11695,6.56895,1781194358395
2084886828,3,6.2700005,2.15295,6.729,1781194358405
2084886838,3,6.21495,2.25405,6.9469504,1781194358415
2084886848,3,6.13605,2.4,7.1359506,1781194358425
2084886858,3,6.0420003,2.5170002,7.2030005,1781194358435
2084886868,3,5.93205,2.60805,7.143,1781194358446
2084886878,3,5.8369503,2.6530502,7.1340003,1781194358455
2084886888,3,5.7379503,2.6869502,7.1910005,1781194358465
2084886898,3,5.6400003,2.70105,7.24905,1781194358475
2084886908,3,5.56395,2.7520502,7.21005,1781194358485
2084886918,3,5.49405,2.802,7.0519505,1781194358496
2084886928,3,5.43195,2.8279502,6.8029504,1781194358506
2084886939,3,5.3580003,2.8189502,6.597,1781194358517
2084886949,3,5.2639503,2.8159502,6.4849505,1781194358526
2084886959,3,5.169,2.8159502,6.5059505,1781194358536
2084886969,3,5.04405,2.80395,6.5230503,1781194358546
2084886979,3,4.9240503,2.8330503,6.55905,1781194358556
2084886989,3,4.83795,2.87805,6.63105,1781194358567
2084886999,3,4.7470503,2.8260002,6.69495,1781194358577
2084887009,3,4.644,2.706,6.636,1781194358587
2084887019,3,4.53195,2.59095,6.7270503,1781194358596
2084887029,3,4.4359503,2.5120502,6.9949503,1781194358606
2084887039,3,4.3230004,2.49105,7.2720003,1781194358616
2084887049,3,4.22295,2.5429502,7.49805,1781194358626
2084887059,3,4.1410503,2.63205,7.6579504,1781194358637
2084887070,3,4.0480504,2.7610502,7.6200004,1781194358647
2084887080,3,3.9499502,2.84505,7.6050005,1781194358656
2084887090,3,3.8449502,2.8860002,7.8229504,1781194358667
2084887100,3,3.7080002,2.8570502,8.10105,1781194358677
2084887110,3,3.55695,2.778,8.328,1781194358687
2084887120,3,3.3630002,2.6890502,8.517,1781194358697
2084887130,3,3.1890001,2.6530502,8.65905,1781194358707
2084887140,3,2.9989502,2.6580002,8.656051,1781194358717
2084887150,3,2.7480001,2.56995,8.45505,1781194358727
2084887160,3,2.5800002,2.5530002,8.38095,1781194358737
2084887170,3,2.40105,2.49495,8.46195,1781194358747
2084887180,3,2.2069502,2.397,8.470051,1781194358757
2084887190,3,2.0029502,2.3160002,8.48595,1781194358768
2084887201,3,1.7860501,2.25795,8.470051,1781194358778
2084887211,3,1.575,2.2440002,8.46195,1781194358788
2084887221,3,1.371,2.26305,8.448,1781194358797
2084887231,3,0.9480001,2.637,9.33405,1781194358808
2084887241,3,0.84195006,2.4829502,8.877001,1781194358818
2084887251,3,0.57405,2.64105,9.26895,1781194358828
2084887261,3,0.615,2.4790502,8.673,1781194358838
2084887271,3,0.67905,2.4190502,8.22105,1781194358848
2084887281,3,0.56895,2.6580002,8.13195,1781194358858
2084887291,3,0.36600003,3.111,8.2879505,1781194358869
2084887301,3,0.28395,3.2329502,8.175,1781194358879
2084887311,3,0.32505003,3.28305,8.0460005,1781194358889
2084887321,3,0.354,3.2400002,7.82805,1781194358898
2084887331,3,0.30600002,3.2280002,7.62195,1781194358909
2084887342,3,0.040050004,3.4050002,7.7059503,1781194358919
2084887352,3,-0.54495,3.8700001,8.26395,1781194358929
2084887362,3,-1.13205,4.3819504,9.114,1781194358940
2084887372,3,-1.194,4.617,9.898951,1781194358949
2084887382,3,-1.21305,4.2769504,10.540951,1781194358964
2084887392,3,-1.3549501,3.6180003,10.77795,1781194358970
2084887402,3,-1.383,3.11505,10.714951,1781194358980
2084887412,3,-1.3450501,2.907,10.34895,1781194358989
2084887422,3,-1.3620001,3.0030003,9.79605,1781194359000
2084887432,3,-1.5340501,3.4309502,9.5130005,1781194359010
2084887442,3,-1.8259501,3.97005,9.777,1781194359019
2084887452,3,-1.9960501,4.33605,10.36095,1781194359030
2084887462,3,-2.2450502,4.5139503,10.49505,1781194359040
2084887473,3,-2.5780501,4.74405,9.9199505,1781194359050
2084887483,3,-3.1669502,5.7229505,8.379001,1781194359060
2084887493,3,-3.45405,6.6780005,8.673,1781194359070
2084887503,3,-3.4660501,6.6829505,9.066,1781194359080
2084887513,3,-3.801,6.051,9.01305,1781194359090
2084887523,3,-3.8830502,5.50005,9.336,1781194359100
2084887533,3,-3.7780502,5.5339503,9.7890005,1781194359111
2084887543,3,-3.9280503,6.0409503,9.870001,1781194359121
2084887553,3,-3.76305,6.4630504,9.904051,1781194359130
2084887563,3,-3.8610003,6.14895,9.298051,1781194359140
2084887573,3,-3.82995,5.9770503,9.085051,1781194359150
2084887583,3,-4.22805,6.09105,8.616,1781194359160
2084887593,3,-4.35195,6.249,7.8469505,1781194359170
2084887603,3,-4.0360503,6.36705,7.8090005,1781194359181
2084887614,3,-3.8730001,6.42705,7.5769506,1781194359191
2084887624,3,-3.7680001,6.43095,7.39905,1781194359201
2084887634,3,-3.4639502,6.1470003,7.51905,1781194359211
2084887644,3,-3.4090502,6.1369505,7.2630005,1781194359221
2084887654,3,-3.1690502,6.2730002,7.05705,1781194359231
2084887664,3,-3.07095,6.393,6.8250003,1781194359241
2084887674,3,-2.94405,6.3360004,6.7530003,1781194359251
2084887684,3,-2.7499502,6.2179503,6.5059505,1781194359261
2084887694,3,-2.40105,6.0679502,6.3100505,1781194359271
2084887704,3,-2.02005,5.80905,6.5020504,1781194359281
2084887714,3,-1.8930001,5.7400503,6.1849504,1781194359292
2084887724,3,-1.52205,5.68905,6.4800005,1781194359301
2084887734,3,-1.1029501,6.14895,6.64305,1781194359312
2084887745,3,-0.423,6.558,6.69495,1781194359322
2084887755,3,0.21705002,7.2049503,6.67605,1781194359332
2084887765,3,-0.19305001,7.1280003,6.2380505,1781194359343
2084887775,3,-0.19305001,6.8580003,6.0589504,1781194359352
2084887785,3,-0.15300001,6.7830005,5.8380003,1781194359361
2084887795,3,0.25305,6.7380004,5.7229505,1781194359372
2084887805,3,1.8430501,6.1390505,5.30205,1781194359382
2084887815,3,2.2840502,5.95305,4.71105,1781194359391
2084887825,3,2.67105,5.81895,5.556,1781194359403
2084887835,3,2.6160002,6.6160502,6.4180503,1781194359413
2084887845,3,0.97905004,7.8220506,6.91305,1781194359422
2084887855,3,-0.39495003,7.4560504,7.7299504,1781194359433
2084887865,3,-1.2610501,7.6330504,7.56195,1781194359442
2084887876,3,-1.386,7.6930504,7.6440005,1781194359453
2084887886,3,-1.67505,7.6399503,7.8900003,1781194359461
2084887896,3,-1.76205,7.6210504,7.8210006,1781194359473
2084887906,3,-1.7040001,7.59495,7.66695,1781194359483
2084887916,3,-1.5679501,7.5850506,7.4710503,1781194359492
2084887926,3,-1.4599501,7.6000504,7.04295,1781194359502
2084887936,3,-1.2210001,7.5160503,6.7530003,1781194359512
2084887946,3,-0.94305,7.6050005,6.3840003,1781194359524
2084887956,3,-0.41805002,7.42005,6.0990005,1781194359533
2084887966,3,0.64605004,6.939,5.925,1781194359544
2084887976,3,1.5649501,6.7000504,6.0730505,1781194359554
2084887986,3,1.40295,7.3219504,6.1039505,1781194359563
2084887996,3,1.4100001,7.2910504,6.35505,1781194359574
2084888006,3,1.3980001,7.6330504,6.1519504,1781194359583
2084888017,3,1.43595,7.97805,6.0490503,1781194359594
2084888027,3,1.56105,8.076,6.09495,1781194359604
2084888037,3,1.6609501,7.971,6.2310004,1781194359613
2084888047,3,1.86705,7.39905,6.11595,1781194359623
2084888057,3,2.05905,7.8919506,5.7229505,1781194359634
2084888067,3,2.358,7.767,5.6400003,1781194359644
2084888077,3,2.04195,8.401951,5.556,1781194359654
2084888087,3,1.4260501,8.727,5.49405,1781194359664
2084888097,3,0.984,8.76795,5.6470504,1781194359673
2084888107,3,0.67905,8.908951,5.8360505,1781194359685
2084888117,3,0.67005,9.11295,5.814,1781194359695
2084888127,3,0.77295005,9.087001,6.31995,1781194359705
2084888137,3,0.76605004,9.096001,6.0420003,1781194359715
2084888148,3,0.70605004,9.319051,5.7780004,1781194359724
2084888158,3,0.56205004,9.30195,5.43795,1781194359735
2084888168,3,0.58605003,8.976001,5.3430004,1781194359745
2084888178,3,1.1029501,8.31105,5.142,1781194359755
2084888188,3,1.67505,7.3770003,5.1150002,1781194359765
2084888198,3,1.89795,6.9820504,4.8300004,1781194359775
2084888208,3,1.77795,7.0849504,5.10795,1781194359785
2084888218,3,0.744,6.8290505,4.8850503,1781194359795
2084888228,3,0.43500003,7.5780005,4.1340003,1781194359805
2084888238,3,0.48795003,7.9950004,3.3390002,1781194359815
2084888248,3,0.84900004,7.6740003,2.9940002,1781194359826
2084888258,3,0.80895007,7.7149506,2.97,1781194359836
2084888268,3,1.0819501,7.5040503,3.1230001,1781194359846
2084888278,3,1.31895,7.4350505,3.42,1781194359857
2084888289,3,1.4140501,7.6170006,3.35805,1781194359868
2084888299,3,1.503,7.8610506,2.8290002,1781194359876
2084888309,3,1.55805,8.20995,2.19705,1781194359886
2084888319,3,1.5079501,8.646001,1.557,1781194359897
2084888329,3,1.52205,9.016951,1.095,1781194359906
2084888339,3,1.55595,9.451051,0.91605,1781194359917
2084888349,3,1.4959501,9.955951,0.83205,1781194359926
2084888359,3,1.539,10.224001,0.78405005,1781194359937
2084888369,3,1.7040001,10.309951,0.633,1781194359948
2084888379,3,2.12295,9.987,0.049050003,1781194359957
2084888389,3,2.4180002,9.81,-0.76395005,1781194359967
2084888399,3,2.5470002,9.913051,-1.33095,1781194359977
2084888409,3,2.631,10.177951,-1.6620001,1781194359987
2084888420,3,2.559,10.602,-1.863,1781194359997
2084888430,3,2.5450501,10.930051,-1.8270001,1781194360007
2084888440,3,2.5900502,11.12895,-1.64505,1781194360017
2084888450,3,2.52495,11.371051,-1.4650501,1781194360027
2084888460,3,2.463,11.49495,-1.1850001,1781194360037
2084888470,3,2.49405,11.182051,-0.72300005,1781194360047
2084888480,3,2.69295,11.09805,-0.20595,1781194360056
2084888490,3,2.6790001,10.96395,0.60705,1781194360068
2084888500,3,2.5210502,11.277,1.3950001,1781194360078
2084888510,3,2.42205,11.536051,1.9980001,1781194360088
2084888520,3,2.4390001,11.611951,2.2450502,1781194360098
2084888530,3,2.4540002,11.593051,2.2369502,1781194360108
2084888540,3,2.4820502,11.392051,2.058,1781194360118
2084888551,3,2.56095,11.0119505,1.58595,1781194360128
2084888561,3,2.7,10.411051,1.4260501,1781194360138
2084888571,3,2.877,9.802051,1.22895,1781194360148
2084888581,3,2.9299502,9.43395,1.02795,1781194360158
2084888591,3,2.87505,9.328051,0.88005006,1781194360168
2084888601,3,2.7480001,9.541051,0.708,1781194360178
2084888611,3,2.6500502,9.795,0.36795002,1781194360188
2084888621,3,2.46795,10.059,-0.012,1781194360198
2084888631,3,2.4870002,9.972,-0.35205,1781194360208
2084888641,3,2.604,9.646951,-0.73005,1781194360218
2084888651,3,2.7169502,9.369,-0.83295006,1781194360228
2084888661,3,2.87295,9.08895,-0.94605005,1781194360239
2084888671,3,2.8219502,9.307051,-1.0819501,1781194360249
2084888681,3,2.8630502,9.465,-1.245,1781194360259
2084888692,3,2.9160001,9.570001,-1.5799501,1781194360269
2084888702,3,2.8510501,9.723001,-1.9150501,1781194360279
2084888712,3,3.07395,9.35505,-2.42805,1781194360289
2084888722,3,3.1690502,8.94495,-2.871,1781194360299
2084888732,3,3.3940501,8.44305,-2.9620502,1781194360309
2084888742,3,3.5809503,8.188951,-2.67405,1781194360320
2084888752,3,3.5329502,8.3560505,-2.1090002,1781194360329
2084888762,3,3.5479503,8.713051,-1.5079501,1781194360339
2084888772,3,3.591,9.10095,-0.99405,1781194360349
2084888782,3,3.6409502,9.316051,-0.74505,1781194360360
2084888792,3,3.80205,9.240001,-0.89595,1781194360370
2084888802,3,3.9280503,9.099,-1.1730001,1781194360380
2084888812,3,3.9570003,9.06,-1.1230501,1781194360390
2084888823,3,3.7900503,9.24195,-0.96495,1781194360399
2084888833,3,3.5809503,9.501,-0.666,1781194360410
2084888843,3,3.3010502,9.73095,-0.24195,1781194360420
2084888853,3,3.07605,9.70695,0.094950005,1781194360430
2084888863,3,3.0550501,9.312,0.26505002,1781194360440
2084888873,3,2.9299502,9.29205,0.648,1781194360451
2084888883,3,2.70495,9.71595,0.846,1781194360460
2084888893,3,2.568,9.979951,0.657,1781194360471
2084888903,3,2.559,9.843,0.11595,1781194360481
2084888913,3,2.6569502,9.372001,-0.75195,1781194360496
2084888923,3,2.83695,8.682,-1.48695,1781194360500
2084888933,3,2.8129501,8.004001,-1.98705,1781194360513
2084888943,3,2.6209502,7.2889504,-2.2750502,1781194360521
2084888953,3,2.229,6.64905,-2.4520502,1781194360530
2084888964,3,1.8769501,6.25395,-2.02305,1781194360540
2084888974,3,1.36695,6.2970004,-1.41495,1781194360551
2084888984,3,0.53805,6.879,-0.75405,1781194360562
2084888994,3,-0.24795002,7.7359505,0.21000001,1781194360572
2084889004,3,-0.51705,8.56005,0.62895006,1781194360582
2084889014,3,-0.67005,9.38805,0.43905002,1781194360592
2084889024,3,-0.64095,10.03905,-0.23505001,1781194360601
2084889034,3,-0.39705002,10.279051,-0.87195003,1781194360611
2084889044,3,-0.064050004,10.284,-1.4389501,1781194360621
2084889054,3,0.13395001,10.50405,-1.8360001,1781194360632
2084889064,3,0.35895002,10.803,-2.32305,1781194360642
2084889074,3,0.58095,11.32995,-2.42805,1781194360652
2084889084,3,0.81105006,11.77995,-2.60295,1781194360661
2084889095,3,1.1200501,11.932951,-2.87595,1781194360672
2084889105,3,1.35,11.689051,-2.538,1781194360681
2084889115,3,1.503,11.137951,-2.433,1781194360692
2084889125,3,1.9030501,10.69305,-2.361,1781194360703
2084889135,3,2.04195,10.341001,-1.008,1781194360713
2084889145,3,2.0059502,10.41495,0.291,1781194360722
2084889155,3,2.05605,10.65705,1.095,1781194360732
2084889165,3,2.1450002,10.615951,1.47405,1781194360741
2084889175,3,2.2810502,10.21905,1.3920001,1781194360753
2084889185,3,2.4060001,10.177951,0.68805003,1781194360762
2084889195,3,2.4180002,9.637051,0.03705,1781194360772
2084889205,3,2.6209502,9.604051,-0.57195,1781194360782
2084889215,3,2.49405,9.811951,-0.63195,1781194360792
2084889226,3,2.4750001,9.946051,-0.45705003,1781194360801
2084889236,3,2.38395,9.915001,-0.12900001,1781194360812
2084889246,3,2.3460002,10.305,0.025050001,1781194360823
2084889256,3,2.29605,10.67895,-0.036000002,1781194360832
2084889266,3,2.262,10.65495,-0.13695,1781194360843
2084889276,3,2.0059502,10.72395,-0.29205,1781194360852
2084889286,3,1.2210001,12.199051,6.0079503,1781194360863
2084889296,3,2.14995,9.285001,-1.71405,1781194360873
2084889306,3,1.74495,10.332001,-1.7020501,1781194360883
2084889316,3,1.1080501,10.9129505,-0.112950005,1781194360893
2084889326,3,-1.1179501,29.602951,1.40205,1781194360905
2084889336,3,4.2660003,14.701051,0.07095,1781194360914
2084889346,3,2.67405,12.522,0.21900001,1781194360923
2084889356,3,1.8769501,8.221951,-0.8880001,1781194360934
2084889367,3,0.11400001,8.677051,-0.29895002,1781194360945
2084889377,3,0.19800001,8.337001,0.69795,1781194360954
2084889387,3,-0.06705,10.53705,1.383,1781194360965
2084889397,3,0.37995002,9.963,1.55505,1781194360973
2084889407,3,0.17400001,5.742,1.74195,1781194360984
2084889417,3,-1.09095,6.3640504,2.3380501,1781194360994
2084889427,3,-1.04805,6.558,2.77395,1781194361004
2084889437,3,-0.9480001,7.1899505,3.10695,1781194361015
2084889447,3,-0.75795,7.9230003,2.42895,1781194361024
2084889457,3,-0.097950004,7.0399504,1.3609501,1781194361035
2084889467,3,-0.061950002,7.6399503,1.6699501,1781194361044
2084889477,3,-0.44700003,8.20995,2.05095,1781194361055
2084889487,3,-0.39000002,8.191051,2.3070002,1781194361065
2084889498,3,-0.06705,7.9230003,2.0269501,1781194361075
2084889508,3,0.20805001,7.65705,1.3440001,1781194361085
2084889518,3,0.32295,7.7509503,0.85095006,1781194361095
2084889528,3,0.53805,7.8970504,0.84195006,1781194361106
2084889538,3,0.61995006,8.28495,0.71505004,1781194361115
2084889548,3,0.67695004,8.50695,0.44895002,1781194361124
2084889558,3,0.94500005,8.377951,0.11895001,1781194361136
2084889568,3,1.23,8.233951,-0.079050004,1781194361145
2084889578,3,1.4770501,8.083051,-0.19395001,1781194361158
2084889588,3,1.575,8.035951,-0.18900001,1781194361166
2084889598,3,1.5490501,8.229,-0.14595,1781194361177
2084889608,3,1.3789501,8.404051,-0.025950002,1781194361186
2084889618,3,1.25205,8.7630005,0.34095,1781194361196
2084889629,3,1.1340001,9.501,0.94200003,1781194361206
2084889639,3,1.2730501,9.88605,1.35195,1781194361216
2084889649,3,1.44105,9.91695,1.47105,1781194361226
2084889659,3,1.29495,10.032001,1.2940501,1781194361236
2084889669,3,1.10595,9.846001,0.777,1781194361246
2084889679,3,1.05495,9.40995,0.01995,1781194361257
2084889689,3,0.88095003,9.148951,-0.72300005,1781194361267
2084889699,3,0.65595,8.77095,-1.38195,1781194361277
2084889709,3,0.44700003,8.45895,-1.8360001,1781194361288
2084889719,3,0.18405001,8.44005,-1.6380001,1781194361297
2084889729,3,-0.18405001,8.72505,-1.17795,1781194361306
2084889739,3,-0.62700003,9.18,-0.59595,1781194361317
2084889749,3,-0.99105006,9.678,0.0,1781194361327
2084889759,3,-1.3069501,9.99405,0.32895002,1781194361337
2084889770,3,-1.47195,10.132951,0.411,1781194361347
2084889780,3,-1.6200001,10.39605,0.34800002,1781194361357
2084889790,3,-1.56105,10.7029505,0.22395001,1781194361367
2084889800,3,-1.3620001,10.81995,0.31305,1781194361378
2084889810,3,-1.18005,11.268001,0.37005,1781194361389
2084889820,3,-1.08405,11.826,0.693,1781194361398
2084889830,3,-1.04595,12.07005,1.00695,1781194361408
2084889840,3,-0.91605,13.863001,3.657,1781194361418
2084889850,3,0.49005002,17.418001,4.3710003,1781194361427
2084889860,3,0.32295,14.074051,4.644,1781194361437
2084889870,3,-0.21300001,11.182051,0.91605,1781194361448
2084889880,3,-1.0390501,10.585051,-0.66105,1781194361458
2084889890,3,-1.4310001,10.906051,-0.38295,1781194361468
2084889901,3,-0.85395,10.873051,0.36,1781194361478
2084889911,3,-0.49695003,11.103001,0.075,1781194361488
2084889921,3,-0.41595003,11.4210005,-0.024,1781194361498
2084889931,3,-0.61995006,12.561001,-0.24405001,1781194361508
2084889941,3,-0.78705,13.132951,-0.49305,1781194361518
2084889951,3,-0.9670501,13.212001,-0.34305,1781194361528
2084889961,3,-0.26505002,12.357,-0.141,1781194361538
2084889971,3,0.0019500001,12.982051,0.44400004,1781194361548
2084889981,3,-0.025950002,13.240951,0.80805004,1781194361558
2084889991,3,0.28395,12.658951,0.82500005,1781194361568
2084890001,3,0.39900002,11.866051,0.65505004,1781194361579
2084890011,3,0.79395,10.279051,0.51105005,1781194361588
2084890021,3,0.90705,9.29205,0.18795002,1781194361599
2084890031,3,0.49995002,8.93295,-0.043050002,1781194361609
2084890042,3,-0.105000004,9.382951,-0.14895001,1781194361619
2084890052,3,-0.55005,9.85995,-0.21300001,1781194361628
2084890062,3,-0.9979501,10.224001,-0.49605003,1781194361639
2084890072,3,-1.33095,10.224001,-0.72105,1781194361650
2084890082,3,-1.3470001,9.762,-0.99105006,1781194361659
2084890092,3,-1.21305,8.90205,-0.68700004,1781194361670
2084890102,3,-1.1560501,8.184,-0.62295,1781194361680
2084890112,3,-1.16295,7.3240504,-0.89100003,1781194361690
2084890122,3,-1.12995,6.063,-0.76605004,1781194361700
2084890132,3,-1.0390501,6.30495,-0.54405004,1781194361710
2084890142,3,-2.0010002,19.15695,-3.072,1781194361720
2084890152,3,-3.045,36.783,-7.49595,1781194361730
2084890162,3,-0.70095,13.156951,-2.265,1781194361740
2084890173,3,-0.165,2.53095,-1.26405,1781194361750
2084890183,3,-0.112050004,1.6860001,-1.28805,1781194361760
2084890193,3,-0.165,4.4749503,-1.45095,1781194361770
2084890203,3,-0.37095,10.116,-1.176,1781194361780
2084890213,3,0.69105005,20.08605,-2.02095,1781194361791
2084890223,3,0.50205004,14.6959505,-1.7839501,1781194361801
2084890233,3,0.20295002,8.500051,-1.9009501,1781194361810
2084890243,3,-0.30600002,5.0830503,-1.2070501,1781194361820
2084890253,3,-0.15795001,5.6509504,-0.73005,1781194361830
2084890263,3,0.28695002,10.686001,-0.36900002,1781194361840
2084890273,3,0.31095,14.1,-0.75705004,1781194361851
2084890283,3,0.62700003,10.99995,-1.4629501,1781194361860
2084890293,3,0.47100002,8.257951,-1.6470001,1781194361870
2084890304,3,0.43800002,8.28495,-1.3549501,1781194361880
2084890314,3,0.64095,9.40305,-1.9060501,1781194361891
2084890324,3,0.684,10.743001,-2.6940002,1781194361903
2084890334,3,0.711,10.5060005,-3.0700502,1781194361911
2084890344,3,0.85395,9.028951,-3.76095,1781194361921
2084890354,3,1.18005,8.601001,-4.1470504,1781194361933
2084890364,3,1.44105,9.55305,-4.434,1781194361941
2084890374,3,1.5649501,9.846001,-4.3770003,1781194361951
2084890384,3,1.608,9.24495,-3.7690501,1781194361961
2084890394,3,1.6870501,8.845051,-3.4140003,1781194361971
2084890404,3,1.845,8.514,-3.2010002,1781194361981
2084890414,3,1.8529501,8.986051,-3.4720502,1781194361991
2084890424,3,1.6200001,9.702001,-3.381,1781194362003
2084890434,3,1.2919501,9.661051,-3.1630502,1781194362011
2084890445,3,1.17495,9.225,-2.9160001,1781194362021
2084890455,3,0.957,9.38595,-2.7270002,1781194362035
2084890465,3,1.098,9.735001,-2.93805,1781194362042
2084890475,3,1.2400501,9.90495,-3.0979502,1781194362051
2084890485,3,1.1580001,9.89805,-2.77005,1781194362061
2084890495,3,0.873,9.225,-2.26005,1781194362072
2084890505,3,0.90705,9.10095,-2.22,1781194362082
2084890515,3,0.651,9.561001,-2.06205,1781194362093
2084890525,3,0.33195,9.71595,-1.9920001,1781194362101
2084890535,3,0.10005,9.943951,-2.11905,1781194362111
2084890545,3,0.19095,10.37205,-2.4490502,1781194362123
2084890555,3,0.39900002,10.15005,-2.5789502,1781194362131
2084890565,3,0.59595,9.774,-2.39895,1781194362141
2084890576,3,0.84195006,9.640051,-2.2120502,1781194362153
2084890586,3,0.91905004,9.585,-2.36805,1781194362163
2084890596,3,0.90000004,9.5130005,-2.6509502,1781194362172
2084890606,3,0.873,9.534,-2.871,1781194362183
2084890616,3,0.81600004,9.58905,-3.0259502,1781194362192
2084890626,3,0.744,9.646951,-3.07905,1781194362203
2084890636,3,0.76305,9.606001,-2.9899502,1781194362213
2084890646,3,0.82095003,9.640051,-2.8249502,1781194362223
2084890656,3,0.90195006,9.628051,-2.6190002,1781194362234
2084890666,3,0.93105006,9.502951,-2.46405,1781194362243
2084890676,3,0.95505005,9.40005,-2.46405,1781194362254
2084890686,3,0.96900004,9.4459505,-2.5789502,1781194362263
2084890696,3,0.68895006,9.86505,-2.5090501,1781194362274
2084890706,3,0.63195,9.87405,-2.217,1781194362284
2084890717,3,0.64095,9.8890505,-2.0380502,1781194362294
2084890727,3,0.72705,9.690001,-1.9369501,1781194362306
2084890737,3,0.79005,9.65205,-1.9920001,1781194362314
2084890747,3,0.81405,9.771001,-2.1360002,1781194362324
2084890757,3,0.85395,9.77595,-2.2840502,1781194362334
2084890767,3,0.75600004,9.72795,-1.9800001,1781194362344
2084890777,3,0.68895006,9.493951,-2.01795,1781194362355
2084890787,3,0.57900006,9.502951,-2.1330001,1781194362364
2084890797,3,0.54495,9.561001,-2.3800502,1781194362372
2084890807,3,0.55695003,9.771001,-2.73195,1781194362384
2084890817,3,0.59595,9.793051,-3.0580502,1781194362394
2084890827,3,0.53805,9.7900505,-3.3930001,1781194362405
2084890837,3,0.52905005,9.823951,-3.8550003,1781194362415
2084890848,3,0.61005,9.786,-4.78905,1781194362425
2084890858,3,0.591,9.891001,-5.5399504,1781194362435
2084890868,3,0.57705003,9.640051,-5.82495,1781194362445
2084890878,3,0.60300004,9.55095,-6.03105,1781194362455
2084890888,3,0.53805,9.723001,-5.5279503,1781194362465
2084890898,3,0.38295,9.71595,-3.7369502,1781194362475
2084890908,3,-0.0019500001,10.297951,-1.02195,1781194362485
2084890918,3,-0.126,10.72395,0.10395,1781194362496
2084890928,3,0.17400001,10.375051,0.351,1781194362506
2084890938,3,0.41595003,9.618,1.1550001,1781194362516
2084890948,3,0.744,8.971951,1.713,1781194362526
2084890958,3,0.80595005,8.826,1.84695,1781194362536
2084890968,3,0.462,8.988001,1.7869501,1781194362546
2084890979,3,-0.25605002,9.604051,0.59505004,1781194362556
2084890989,3,0.19305001,9.880951,-2.9640002,1781194362566
2084890999,3,1.12995,10.20495,-4.8679504,1781194362576
2084891009,3,1.503,10.07295,-5.0779505,1781194362586
2084891019,3,1.7569501,9.774,-5.0470505,1781194362596
2084891029,3,2.0989501,9.15795,-4.518,1781194362606
2084891039,3,2.4390001,8.83005,-3.48795,1781194362617
2084891049,3,2.5830002,8.719951,-2.3800502,1781194362626
2084891059,3,2.53305,8.7630005,-1.45305,1781194362636
2084891069,3,2.39895,8.896951,-1.1659501,1781194362646
2084891079,3,2.217,9.120001,-1.5469501,1781194362656
2084891089,3,2.14995,9.217951,-2.3800502,1781194362667
2084891099,3,2.19495,9.168,-3.1270502,1781194362677
2084891109,3,2.15895,9.07905,-3.61995,1781194362687
2084891120,3,2.1349502,9.063001,-3.9120002,1781194362697
2084891130,3,2.193,8.895,-4.3309503,1781194362707
2084891140,3,2.4439502,8.983951,-4.60395,1781194362717
2084891150,3,2.1780002,9.43395,-4.20195,1781194362727
2084891160,3,1.3549501,9.86205,-3.6870003,1781194362737
2084891170,3,0.86100006,9.781051,-3.69195,1781194362747
2084891180,3,0.79905003,9.484051,-4.092,1781194362757
2084891190,3,0.90495,9.21105,-4.5199504,1781194362767
2084891200,3,1.01505,9.35505,-4.2330003,1781194362777
2084891210,3,1.23,9.53205,-3.7210503,1781194362788
2084891220,3,1.2970501,9.561001,-3.4000502,1781194362797
2084891230,3,1.47,9.582001,-3.4840503,1781194362807
2084891240,3,1.64205,9.441,-3.5389502,1781194362818
2084891251,3,1.47195,9.55095,-3.6010501,1781194362828
2084891261,3,1.2280501,9.331051,-3.42405,1781194362838
2084891271,3,1.09095,9.27795,-3.2680502,1781194362848
2084891281,3,0.91905004,9.56805,-3.0499501,1781194362857
2084891291,3,0.69105005,9.8220005,-2.94705,1781194362868
2084891301,3,0.65295005,9.807,-2.33205,1781194362878
2084891311,3,1.1179501,9.649051,-2.98095,1781194362888
2084891321,3,1.8739501,9.38595,-4.7070003,1781194362900
2084891331,3,2.5210502,8.908951,-5.622,1781194362908
2084891341,3,2.63805,9.142051,-5.16195,1781194362918
2084891351,3,2.67105,9.237,-2.73705,1781194362929
2084891361,3,2.523,8.713051,-2.66205,1781194362939
2084891371,3,2.664,8.548051,-2.016,1781194362949
2084891381,3,2.7150002,8.754001,-0.702,1781194362959
2084891392,3,3.1650002,8.41605,-1.72395,1781194362969
2084891402,3,3.66,9.099,-3.8400002,1781194362979
2084891412,3,3.732,9.193951,-5.23395,1781194362989
2084891422,3,3.7819502,8.75595,-6.1200004,1781194362999
2084891432,3,4.01895,8.359051,-5.7289505,1781194363009
2084891442,3,4.4170504,7.3510504,-4.59,1781194363019
2084891452,3,4.6080003,6.9580503,-3.9859502,1781194363029
2084891462,3,4.8169503,7.09005,-2.7250502,1781194363039
2084891472,3,4.88805,7.7170506,-1.6140001,1781194363049
2084891482,3,4.8120003,8.11005,-1.743,1781194363060
2084891492,3,4.4770503,8.227051,-1.41795,1781194363070
2084891502,3,4.374,7.9900503,-1.64295,1781194363087
2084891512,3,4.10295,8.265,-2.1720002,1781194363090
2084891523,3,3.55695,8.743951,-1.8750001,1781194363100
2084891533,3,3.03795,9.07905,-2.02605,1781194363110
2084891543,3,2.42505,9.5130005,-2.232,1781194363120
2084891553,3,1.5700501,9.89805,-1.6500001,1781194363130
2084891563,3,0.744,9.96,-0.85200006,1781194363141
2084891573,3,0.126,9.838051,-0.36600003,1781194363150
2084891583,3,-0.093,9.691951,-0.32595003,1781194363160
2084891593,3,-0.30600002,9.807,-0.69000006,1781194363170
2084891603,3,-0.46605003,9.814051,-0.79305005,1781194363180
2084891613,3,-0.56505,9.67605,-0.59895,1781194363190
2084891623,3,-0.60495,9.57705,-0.26295,1781194363200
2084891633,3,-0.57195,9.691951,-0.031050002,1781194363210
2084891643,3,-0.56205004,10.309951,-0.052950002,1781194363220
2084891654,3,-0.76605004,10.530001,-0.28995,1781194363230
2084891664,3,-0.90000004,9.711,-0.35895002,1781194363241
2084891674,3,-0.744,8.74905,-0.094050005,1781194363251
2084891684,3,-0.59595,7.1980505,0.29805002,1781194363261
2084891694,3,-0.32700002,6.67995,-0.052950002,1781194363271
2084891704,3,-0.165,9.144,-1.3770001,1781194363281
2084891714,3,-0.025950002,7.9950004,-1.0180501,1781194363291
2084891724,3,0.0,6.867,-0.31395,1781194363303
2084891734,3,-0.10005,7.1140504,-0.97005004,1781194363311
2084891744,3,-0.28005,7.866,-1.8510001,1781194363321
2084891754,3,-0.246,7.99695,-1.9039501,1781194363331
2084891764,3,0.72300005,9.81,-0.75405,1781194363342
2084891774,3,4.7380505,19.164001,5.6920505,1781194363352
2084891784,3,8.65905,28.32405,3.4609501,1781194363362
2084891795,3,2.6260502,13.315051,0.15405001,1781194363371
2084891805,3,-1.6900501,5.4810004,-0.16800001,1781194363383
2084891815,3,-2.97495,4.9300504,-2.4400501,1781194363392
2084891825,3,-2.427,7.34595,-4.0009503,1781194363401
2084891835,3,-0.28395,12.249001,-3.9889503,1781194363411
2084891845,3,0.69900006,14.646001,-3.558,1781194363422
2084891855,3,0.24105,11.14095,-3.1390502,1781194363433
2084891865,3,-0.064050004,8.88105,-3.31605,1781194363443
2084891875,3,0.21300001,9.15795,-3.4330502,1781194363452
2084891885,3,0.85905004,9.927,-3.5719502,1781194363463
2084891895,3,1.3620001,9.72795,-3.2749503,1781194363473
2084891905,3,1.5490501,8.76105,-2.7490501,1781194363481
2084891915,3,1.4599501,8.07405,-1.81305,1781194363493
2084891926,3,1.33095,8.64105,-1.48905,1781194363502
2084891936,3,1.3120501,9.23505,-1.14705,1781194363521
2084891946,3,1.11,9.4789505,-0.73995006,1781194363523
2084891956,3,0.74895006,9.56295,-0.46695003,1781194363532
2084891966,3,0.30105,9.640051,-0.52695,1781194363541
2084891976,3,-0.034950003,9.72795,-0.63195,1781194363551
2084891986,3,-0.47400004,10.341001,-0.60300004,1781194363562
2084891996,3,-1.422,12.193951,-0.72795004,1781194363573
2084892006,3,-2.4460502,12.573001,-1.779,1781194363582
2084892016,3,-2.7190502,10.972951,-1.81305,1781194363594
2084892026,3,-2.6119502,9.88605,-1.4460001,1781194363604
2084892036,3,-2.4850502,9.96,-1.34595,1781194363614
2084892046,3,-2.38395,10.377001,-1.3480501,1781194363623
2084892056,3,-1.9750501,10.458,-1.4389501,1781194363634
2084892067,3,-1.30005,9.73305,-1.8750001,1781194363644
2084892077,3,-0.74205005,9.505951,-2.18805,1781194363654
2084892087,3,-0.40695003,9.8550005,-2.6100001,1781194363665
2084892097,3,-0.19605,9.7900505,-2.9260502,1781194363675
2084892107,3,0.093,9.44295,-3.45705,1781194363684
2084892117,3,0.124050006,9.20205,-4.08705,1781194363694
2084892127,3,-0.25995,9.3,-4.65,1781194363704
2084892137,3,-0.47805002,9.642,-4.7719502,1781194363714
2084892147,3,-0.52905005,9.838051,-4.635,1781194363725
2084892157,3,-0.53295004,9.949051,-4.23105,1781194363734
2084892167,3,-0.38505003,9.85995,-3.52395,1781194363744
2084892177,3,0.043050002,9.427051,-3.0550501,1781194363754
2084892187,3,0.21000001,9.357,-2.9310002,1781194363765
2084892198,3,0.17895001,9.501,-2.80905,1781194363774
2084892208,3,0.064050004,9.297001,-2.5090501,1781194363788
2084892218,3,0.26295,9.439051,-1.9950001,1781194363797
2084892228,3,0.33495003,9.472051,-1.9800001,1781194363805
2084892238,3,-0.00405,9.51,-2.46105,1781194363815
2084892248,3,-0.14295001,9.417001,-2.3149502,1781194363825
2084892258,3,0.0139500005,9.23295,-2.3749502,1781194363836
2084892303,3,-0.99105006,9.55605,-4.89405,1781194363879
2084892313,3,-0.97905004,9.637051,-5.39895,1781194363890
2084892323,3,-0.95505005,9.714001,-3.4309502,1781194363899
2084892334,3,-0.85695004,9.826051,-3.25395,1781194363909
2084892344,3,-0.69105005,9.51,-4.755,1781194363920
2084892354,3,-0.68205005,9.337951,-4.12095,1781194363930
2084892364,3,-0.39000002,8.93595,-5.2870502,1781194363940
2084892374,3,-0.045,8.866051,-7.28805,1781194363950
2084892384,3,-0.093,9.30195,-8.0449505,1781194363960
2084892394,3,-0.58605003,10.15005,-7.1950502,1781194363970
2084892404,3,-1.338,10.97595,-6.6130505,1781194363980
2084892414,3,-2.28795,12.747001,-6.22695,1781194363991
2084892424,3,-3.6529503,17.008951,-5.3029504,1781194364001
2084892434,3,-4.1530504,22.07805,-3.7180502,1781194364011
2084892444,3,-2.331,22.932001,-4.46805,1781194364020
2084892454,3,1.4670001,15.132001,-4.4770503,1781194364030
2084892465,3,3.6649501,9.967951,-7.4560504,1781194364042
2084892475,3,4.6249504,7.7839503,-6.87405,1781194364051
2084892485,3,4.73505,7.0990505,-6.6610503,1781194364061
2084892495,3,3.4039502,8.365951,-6.51,1781194364071
2084892505,3,1.64205,10.21695,-5.88,1781194364081
2084892515,3,0.13605,11.212951,-5.5620003,1781194364091
2084892525,3,-0.79695004,11.124001,-5.124,1781194364101
2084892535,3,-0.74595004,10.758,-5.14305,1781194364112
2084892545,3,-0.31800002,10.438951,-5.538,1781194364122
2084892555,3,0.00405,10.16205,-5.346,1781194364132
2084892565,3,0.351,10.189951,-5.41095,1781194364142
2084892575,3,0.56205004,9.943951,-5.1000004,1781194364151
2084892585,3,0.67200005,9.7900505,-5.2990503,1781194364162
2084892595,3,0.65595,9.963,-5.4210005,1781194364172
2084892606,3,0.29595003,9.783,-5.181,1781194364182
2084892616,3,0.045,9.70695,-5.23395,1781194364192
2084892626,3,-0.03795,9.514951,-5.36595,1781194364202
2084892636,3,0.021000002,9.295051,-5.2510505,1781194364212
2084892646,3,-0.010950001,9.23295,-5.03805,1781194364223
2084892656,3,-0.07395,9.193951,-4.9009504,1781194364232
2084892666,3,-0.105000004,9.036,-4.70505,1781194364242
2084892676,3,-0.08805001,8.811001,-4.57305,1781194364252
2084892686,3,-0.094950005,8.51895,-4.61595,1781194364262
2084892696,3,-0.069000006,8.23695,-4.6140003,1781194364272
2084892706,3,-0.112050004,8.050051,-4.6590004,1781194364282
2084892716,3,-0.14805001,7.9470005,-4.64505,1781194364292
2084892726,3,-0.16905001,7.8940506,-4.6210504,1781194364302
2084892737,3,-0.177,7.806,-4.578,1781194364313
2084892747,3,-0.165,7.6720505,-4.5280504,1781194364323
2084892757,3,-0.15795001,7.5019503,-4.4820004,1781194364333
2084892767,3,-0.11895001,7.3219504,-4.43895,1781194364343
2084892777,3,-0.15,7.15005,-4.37895,1781194364353
2084892787,3,-0.14295001,6.9289503,-4.28595,1781194364363
2084892797,3,-0.094950005,6.6400504,-4.0939503,1781194364373
2084892807,3,-0.0019500001,6.5539503,-3.9720001,1781194364383
2084892817,3,-0.23700002,6.8359504,-4.0009503,1781194364393
2084892827,3,-0.44505003,7.0630503,-4.353,1781194364403
2084892837,3,-0.67905,7.2259502,-4.638,1781194364413
2084892847,3,-0.87105006,7.794,-4.815,1781194364424
2084892857,3,-1.0669501,8.12895,-5.0539503,1781194364434
2084892868,3,-1.2420001,8.212951,-4.7190003,1781194364443
2084892878,3,-1.19895,8.00205,-4.4100003,1781194364454
2084892888,3,-1.07895,7.6189504,-4.12305,1781194364464
2084892898,3,-1.098,7.6380005,-3.8809502,1781194364474
2084892908,3,-1.3230001,7.5210004,-4.044,1781194364484
2084892918,3,-1.4500501,7.1860504,-3.9790502,1781194364494
2084892928,3,-1.28805,6.63,-3.5749502,1781194364504
2084892938,3,-1.1080501,6.6900005,-3.4810503,1781194364514
2084892948,3,-1.5370501,6.7980003,-4.02705,1781194364524
2084892958,3,-1.6320001,6.7519503,-5.0400004,1781194364534
2084892968,3,-1.5870001,5.9740505,-4.2979503,1781194364544
2084892978,3,-1.6129501,5.3590503,-4.6189504,1781194364555
2084892988,3,-1.83105,5.433,-4.5610504,1781194364564
2084892998,3,-1.9339501,6.0720005,-4.281,1781194364575
2084893009,3,-1.9579501,6.34005,-4.164,1781194364585
2084893019,3,-1.9440001,6.50295,-4.0150504,1781194364595
2084893029,3,-1.76205,6.38805,-3.6370502,1781194364605
2084893039,3,-1.74495,6.2779503,-4.044,1781194364615
2084893049,3,-1.695,5.7559505,-4.0459504,1781194364625
2084893059,3,-1.6279501,5.6599503,-4.221,1781194364635
2084893069,3,-1.9270501,5.8300505,-4.743,1781194364645
2084893079,3,-2.0700002,5.8999505,-4.6069503,1781194364655
2084893089,3,-2.094,6.01695,-4.68795,1781194364665
2084893099,3,-2.04195,6.23505,-4.6189504,1781194364675
2084893109,3,-2.061,6.4150505,-4.5799503,1781194364685
2084893119,3,-2.32905,6.8190002,-5.0610003,1781194364695
2084893129,3,-2.5800002,6.8959503,-5.5480504,1781194364705
2084893140,3,-2.592,6.8910003,-5.4900002,1781194364716
2084893150,3,-2.47005,6.7039504,-5.4229503,1781194364726
2084893160,3,-2.5159502,6.5220003,-5.95905,1781194364736
2084893170,3,-2.664,6.6060004,-6.34005,1781194364746
2084893180,3,-3.0660002,7.4490004,-7.221,1781194364756
2084893190,3,-3.56205,8.677051,-7.80495,1781194364766
2084893200,3,-4.1059504,9.37905,-7.6450505,1781194364776
2084893210,3,-4.25595,9.958051,-7.7959504,1781194364787
2084893220,3,-4.02405,9.661051,-8.21205,1781194364796
2084893230,3,-3.9019501,9.333,-8.83695,1781194364806
2084893240,3,-3.9160502,8.91705,-9.165,1781194364816
2084893250,3,-4.2109504,8.871,-9.654,1781194364826
2084893260,3,-4.54605,9.295051,-10.02705,1781194364836
2084893270,3,-4.6849504,9.637051,-10.177951,1781194364846
2084893281,3,-4.85295,9.984,-10.695001,1781194364857
2084893291,3,-5.058,9.927,-11.205001,1781194364867
2084893301,3,-5.1109505,9.831,-11.254951,1781194364877
2084893311,3,-5.1109505,9.187051,-11.95905,1781194364887
2084893321,3,-5.48505,9.38805,-12.069,1781194364897
2084893331,3,-5.8099504,9.51795,-11.94495,1781194364906
2084893341,3,-5.94705,9.474,-11.896951,1781194364917
2084893351,3,-5.8320003,9.063001,-11.001,1781194364927
2084893361,3,-5.37405,7.971,-9.28695,1781194364937
2084893371,3,-5.23995,6.7830005,-8.409,1781194364947
2084893381,3,-5.5210505,6.34005,-7.6420503,1781194364958
2084893391,3,-5.6260505,6.4549503,-7.5510006,1781194364968
2084893401,3,-5.5540504,6.6180005,-7.7050505,1781194364977
2084893412,3,-5.3100004,6.76695,-7.7410502,1781194364988
2084893422,3,-5.04405,7.0230002,-7.9729505,1781194364997
2084893432,3,-4.9410005,7.1950502,-8.437051,1781194365007
2084893442,3,-4.95795,7.5060005,-9.220051,1781194365018
2084893452,3,-5.07495,7.8820505,-9.982051,1781194365028
2084893462,3,-5.3890505,8.26095,-10.44795,1781194365038
2084893472,3,-5.75505,8.60295,-10.764001,1781194365048
2084893482,3,-6.12405,8.799001,-10.630051,1781194365058
2084893492,3,-6.3780003,8.77305,-10.341001,1781194365068
2084893502,3,-6.471,8.75595,-9.93795,1781194365078
2084893512,3,-6.46395,8.46195,-9.582001,1781194365088
2084893522,3,-6.5280004,8.63895,-9.80895,1781194365098
2084893532,3,-6.459,8.739,-9.649051,1781194365108
2084893543,3,-6.01905,8.30595,-9.27795,1781194365118
2084893553,3,-5.7649503,7.93695,-9.1390505,1781194365128
2084893563,3,-5.4889503,7.5930004,-8.607,1781194365138
2084893573,3,-5.24805,7.0800004,-8.160001,1781194365149
2084893583,3,-5.097,6.6450005,-7.80495,1781194365159
2084893593,3,-5.03205,6.4750504,-7.7170506,1781194365169
2084893603,3,-5.0059505,6.3910503,-7.6260004,1781194365179
2084893613,3,-4.8690004,6.3019505,-7.3290005,1781194365189
2084893623,3,-4.7380505,5.98605,-6.8479505,1781194365199
2084893633,3,-4.584,5.40705,-6.1129503,1781194365209
2084893643,3,-4.446,4.95405,-5.7250504,1781194365219
2084893653,3,-4.3549504,4.5930004,-5.433,1781194365229
2084893663,3,-4.24695,4.30095,-5.0230503,1781194365239
2084893673,3,-4.2660003,3.9079502,-4.6330504,1781194365249
2084893684,3,-4.374,3.72795,-4.056,1781194365259
2084893694,3,-4.3039503,3.525,-3.5080502,1781194365269
2084893704,3,-4.098,3.07695,-3.0930002,1781194365279
2084893714,3,-3.864,2.6839502,-3.012,1781194365290
2084893724,3,-3.8400002,2.32995,-3.2610002,1781194365300
2084893734,3,-4.05795,2.22495,-3.7369502,1781194365310
2084893744,3,-4.4430003,2.49105,-4.947,1781194365320
2084893754,3,-4.872,2.8279502,-5.952,1781194365331
2084893764,3,-5.7499504,3.4699502,-6.8550005,1781194365341
2084893774,3,-6.7440004,5.2819505,-7.188,1781194365351
2084893784,3,-7.5120006,6.36,-7.3890004,1781194365360
2084893794,3,-7.9099503,6.4840503,-8.554951,1781194365370
2084893804,3,-8.179951,5.9290504,-9.618,1781194365380
2084893815,3,-8.05605,4.89405,-9.27495,1781194365391
2084893825,3,-7.6900506,4.15005,-8.6959505,1781194365401
2084893835,3,-7.2970505,3.5340002,-8.302951,1781194365410
2084893845,3,-6.6859503,2.49495,-7.10895,1781194365421
2084893855,3,-6.3439503,2.18205,-6.5890503,1781194365431
2084893865,3,-5.8960505,2.31795,-5.75295,1781194365441
2084893875,3,-5.59695,2.09295,-5.3820004,1781194365451
2084893885,3,-5.14905,2.28495,-4.71705,1781194365461
2084893895,3,-3.9430501,2.97195,-3.453,1781194365471
2084893905,3,-2.94705,2.778,-2.80095,1781194365482
2084893915,3,-2.42205,2.6250002,-3.58905,1781194365491
2084893925,3,-2.50605,2.079,-2.07795,1781194365502
2084893935,3,-3.114,1.8270001,-0.86205006,1781194365511
2084893946,3,-3.624,2.1720002,-2.871,1781194365522
2084893956,3,-4.18695,2.469,-3.49305,1781194365532
2084893966,3,-4.39305,2.706,-4.4100003,1781194365542
2084893976,3,-4.3780503,2.6890502,-5.71995,1781194365552
2084893986,3,-4.2130504,2.4090002,-6.5410504,1781194365562
2084893996,3,-4.04295,2.9839501,-6.642,1781194365572
2084894006,3,-3.8850002,3.6040502,-6.5599504,1781194365582
2084894016,3,-3.9310503,4.18995,-6.52395,1781194365593
2084894026,3,-4.22505,4.66905,-6.7230005,1781194365602
2084894036,3,-4.5919504,5.20095,-7.28595,1781194365612
2084894046,3,-4.9339504,5.6680503,-7.9819503,1781194365622
2084894056,3,-5.2039504,6.1540504,-8.523001,1781194365632
2084894066,3,-5.367,6.29505,-8.44695,1781194365642
2084894076,3,-5.5090504,6.2590504,-7.6969504,1781194365653
2084894087,3,-5.47305,5.9599504,-7.15605,1781194365663
2084894097,3,-5.33895,5.44005,-6.2320504,1781194365673
2084894107,3,-5.6280003,5.68905,-6.4620004,1781194365683
2084894117,3,-6.28695,5.3040004,-6.0409503,1781194365693
2084894127,3,-7.1940002,4.12095,-5.02995,1781194365703
2084894137,3,-8.142,4.2120004,-4.37895,1781194365713
2084894147,3,-9.306001,4.99305,-4.3890004,1781194365723
2084894157,3,-11.524951,6.8980503,-1.6860001,1781194365733
2084894167,3,-14.319,10.948951,0.034950003,1781194365743
2084894177,3,-13.76895,9.913051,-3.8760002,1781194365753
2084894187,3,-14.07495,10.16205,-1.0009501,1781194365763
2084894197,3,-13.833,10.33905,1.6099501,1781194365774
2084894207,3,-13.01895,9.846001,1.62195,1781194365783
2084894218,3,-12.282001,8.85,0.597,1781194365794
2084894228,3,-10.91895,9.052951,-1.149,1781194365803
2084894238,3,-9.279,9.774,-3.3229501,1781194365814
2084894248,3,-7.9530005,9.609,-4.71705,1781194365824
2084894258,3,-6.77295,9.213,-6.28305,1781194365834
2084894268,3,-5.748,8.77095,-6.8760004,1781194365843
2084894278,3,-4.76205,8.802,-6.9220505,1781194365853
2084894288,3,-3.8920503,8.325001,-6.5200505,1781194365864
2084894298,3,-3.141,7.8460503,-6.4620004,1781194365874
2084894308,3,-2.5110002,7.7550006,-6.3160505,1781194365884
2084894318,3,-1.98705,7.7359505,-5.9160004,1781194365894
2084894328,3,-1.5960001,7.5850506,-5.41095,1781194365904
2084894338,3,-1.3620001,7.2570004,-4.86495,1781194365914
2084894348,3,-1.28505,7.1070004,-4.506,1781194365925
2084894359,3,-1.3470001,7.2169504,-4.44105,1781194365935
2084894369,3,-1.4260501,7.143,-4.4029503,1781194365945
2084894379,3,-1.47195,7.2769504,-4.4869504,1781194365955
2084894389,3,-1.4260501,7.2049503,-4.374,1781194365965
2084894399,3,-1.30005,7.1950502,-4.24305,1781194365975
2084894409,3,-1.1149501,7.2889504,-4.18995,1781194365985
2084894419,3,-1.05495,7.5469503,-4.17105,1781194365995
2084894429,3,-0.97905004,7.8220506,-3.99795,1781194366005
2084894439,3,-0.91605,8.277,-3.92895,1781194366015
2084894449,3,-0.804,8.686951,-3.9169502,1781194366025
2084894459,3,-0.70605004,9.166051,-4.0420504,1781194366035
2084894469,3,-0.62205005,9.57495,-4.0630503,1781194366045
2084894479,3,-0.462,9.931951,-4.149,1781194366055
2084894490,3,-0.31605002,10.401,-3.9580503,1781194366066
2084894500,3,-0.363,10.741051,-4.52505,1781194366075
2084894510,3,-0.47805002,10.948951,-4.69005,1781194366085
2084894520,3,-0.63600004,11.385,-4.62795,1781194366096
2084894530,3,-0.78705,11.316001,-4.4700003,1781194366106
2084894540,3,-0.69900006,11.1,-4.93695,1781194366116
2084894550,3,-0.61005,10.894051,-5.3490005,1781194366126
2084894560,3,-0.49005002,10.52295,-5.1790504,1781194366136
2084894570,3,-0.31800002,9.7570505,-4.65705,1781194366146
2084894580,3,-0.17400001,9.225,-4.4220004,1781194366156
2084894590,3,-0.43005002,9.24495,-3.62295,1781194366166
2084894600,3,-0.66300005,9.0,-3.46005,1781194366176
2084894610,3,-1.02705,9.15795,-3.5790002,1781194366186
2084894621,3,-1.218,9.264001,-3.8479502,1781194366197
2084894631,3,-1.5270001,9.51,-3.9310503,1781194366207
2084894641,3,-1.9080001,9.759001,-3.9220502,1781194366217
2084894651,3,-2.19495,9.73095,-3.7090502,1781194366227
2084894661,3,-2.1660001,9.786,-2.97105,1781194366237
2084894671,3,-2.29095,9.943951,-3.25605,1781194366247
2084894681,3,-2.7580502,10.423051,-3.58695,1781194366257
2084894691,3,-3.177,10.569,-3.8839502,1781194366267
2084894701,3,-3.52905,10.387051,-3.7420502,1781194366277
2084894711,3,-3.588,10.104,-3.2710502,1781194366287
2084894721,3,-3.6360002,10.639951,-2.6839502,1781194366297
2084894731,3,-4.122,11.104951,-2.9929502,1781194366308
2084894741,3,-4.3429503,11.413951,-3.18405,1781194366318
2084894751,3,-4.22295,10.803,-4.18995,1781194366328
2084894762,3,-3.3030002,9.723001,-4.08195,1781194366338
2084894772,3,-2.355,8.529,-4.98705,1781194366348
2084894782,3,-1.74495,7.7220006,-6.2059503,1781194366358
2084894792,3,-1.503,7.6189504,-6.2800503,1781194366368
2084894802,3,-1.335,7.66695,-5.2819505,1781194366378
2084894812,3,-1.3090501,7.827,-4.7689505,1781194366388
2084894822,3,-1.36905,8.2890005,-4.164,1781194366398
2084894832,3,-1.0699501,7.767,-4.12095,1781194366408
2084894842,3,-0.79005,8.13795,-4.10895,1781194366418
2084894852,3,-0.39195,8.280001,-4.3770003,1781194366428
2084894862,3,0.23205002,7.5589504,-4.4700003,1781194366439
2084894872,3,0.73905003,7.25505,-4.7410502,1781194366448
2084894882,3,1.1850001,6.5610003,-5.03805,1781194366459
2084894893,3,1.36905,6.0600004,-5.0209503,1781194366469
2084894903,3,1.194,6.024,-5.05905,1781194366479
2084894913,3,0.80895007,6.393,-5.313,1781194366489
2084894923,3,0.15795001,7.3219504,-4.58295,1781194366499
2084894933,3,-0.53805,9.03195,-3.10995,1781194366509
2084894943,3,-1.51995,10.875001,-1.5180001,1781194366519
2084894953,3,-2.2740002,10.67205,-3.8190002,1781194366529
2084894963,3,-2.77395,10.600051,-2.1409502,1781194366539
2084894973,3,-3.28905,11.170051,-2.40405,1781194366550
2084894983,3,-3.7680001,11.586,-2.6430001,1781194366559
2084894993,3,-3.9019501,11.698951,-1.9200001,1781194366569
2084895003,3,-3.9760501,12.18,-1.5679501,1781194366579
2084895013,3,-4.1680503,13.297951,0.35595003,1781194366590
2084895023,3,-4.26405,14.043,1.7350501,1781194366600
2084895034,3,-4.374,12.74505,-0.37800002,1781194366610
2084895044,3,-5.13,9.77595,-2.6790001,1781194366620
2084895054,3,-6.11205,8.72295,-2.77305,1781194366630
2084895064,3,-6.636,9.096001,-1.48905,1781194366641
2084895074,3,-6.4759502,9.774,-0.70605004,1781194366650
2084895084,3,-5.8510504,9.1369505,-1.40295,1781194366661
2084895094,3,-5.3029504,8.908951,-2.832,1781194366670
2084895104,3,-4.833,6.9030004,-5.9430003,1781194366681
2084895114,3,-4.24695,5.7559505,-8.28405,1781194366691
2084895124,3,-3.6360002,5.124,-5.7580504,1781194366700
2084895134,3,-2.628,4.75995,-4.45305,1781194366711
2084895144,3,-2.05605,4.45095,-4.3650002,1781194366721
2084895154,3,-2.18805,5.2180505,-3.4810503,1781194366731
2084895165,3,-2.46795,6.0600004,-3.0169501,1781194366740
2084895175,3,-2.604,6.498,-3.3229501,1781194366751
2084895185,3,-2.50605,7.6759505,-3.5359502,1781194366761
2084895195,3,-2.32695,9.027,-3.9750001,1781194366772
2084895205,3,-1.9770001,9.628051,-4.1059504,1781194366781
2084895215,3,-1.4500501,11.48595,-4.20405,1781194366791
2084895225,3,-1.27995,15.120001,-5.68905,1781194366801
2084895235,3,-0.65295005,15.691951,-5.538,1781194366812
2084895245,3,0.342,17.184,-7.18305,1781194366821
2084895255,3,1.36695,17.265001,-8.301001,1781194366831
2084895265,3,2.43405,17.04495,-8.887051,1781194366841
2084895275,3,2.9299502,16.36005,-8.385,1781194366850
2084895285,3,3.3079503,14.986051,-6.71295,1781194366862
2084895296,3,3.6220503,13.333951,-5.40105,1781194366871
2084895306,3,3.732,11.59605,-4.26195,1781194366881
2084895316,3,3.6840003,10.284,-3.1699502,1781194366892
2084895326,3,3.7060502,9.29205,-2.1979501,1781194366902
2084895336,3,3.6220503,8.09805,-2.0350502,1781194366911
2084895346,3,3.3919501,7.0800004,-2.04495,1781194366922
2084895356,3,2.772,5.5960503,-2.43495,1781194366932
2084895366,3,2.53695,5.6680503,-2.67195,1781194366942
2084895376,3,2.355,5.7559505,-2.22405,1781194366952
2084895386,3,1.95105,5.1220503,-2.7529502,1781194366962
2084895396,3,1.55805,4.71,-3.4380002,1781194366973
2084895406,3,1.2900001,4.578,-4.57305,1781194366983
2084895416,3,0.97905004,4.518,-5.7510004,1781194366993
2084895426,3,0.59805006,4.368,-6.735,1781194367003
2084895437,3,0.040050004,3.9529502,-7.3429503,1781194367014
2084895447,3,-0.39900002,3.90105,-7.4700003,1781194367023
2084895457,3,-1.06305,3.5010002,-6.9430504,1781194367033
2084895467,3,-1.52505,3.3690002,-5.9760003,1781194367043
2084895477,3,-2.0320501,3.3360002,-5.1400504,1781194367053
2084895487,3,-2.69295,4.15005,-4.6860003,1781194367063
2084895497,3,-3.081,6.36705,-4.00605,1781194367073
2084895507,3,-3.65805,8.93805,-3.048,1781194367084
2084895517,3,-4.4290504,10.36005,-2.04495,1781194367093
2084895527,3,-4.8289504,11.389951,-1.05795,1781194367103
2084895537,3,-4.833,11.821051,-0.52005005,1781194367113
2084895547,3,-4.76205,12.406951,-0.21795002,1781194367123
2084895557,3,-4.70895,12.352051,0.030000001,1781194367134
2084895568,3,-4.53405,11.967001,-0.30405003,1781194367145
2084895578,3,-4.3980002,11.469001,-1.1880001,1781194367154
2084895588,3,-4.149,11.091001,-2.08995,1781194367164
2084895598,3,-3.696,10.64805,-2.9899502,1781194367175
2084895608,3,-3.2080503,9.903001,-3.4069502,1781194367184
2084895618,3,-2.8249502,9.19005,-3.22005,1781194367194
2084895628,3,-2.5399501,8.63895,-3.85995,1781194367204
2084895638,3,-2.38695,8.328,-4.6069503,1781194367214
2084895648,3,-2.3410501,8.148001,-4.92,1781194367224
2084895658,3,-2.25,8.055,-4.8030005,1781194367234
2084895668,3,-2.0320501,7.9800005,-4.85295,1781194367244
2084895678,3,-1.6560001,8.028001,-5.3700004,1781194367255
2084895688,3,-1.28505,8.212951,-5.24595,1781194367265
2084895699,3,-0.82095003,8.656051,-5.46105,1781194367275
2084895709,3,-0.23700002,9.132,-5.7559505,1781194367285
2084895719,3,0.31800002,9.382951,-5.964,1781194367295
2084895729,3,0.78195006,9.781051,-5.9880004,1781194367305
2084895739,3,1.14195,10.21695,-5.98995,1781194367315
2084895749,3,1.4239501,10.353001,-5.89905,1781194367325
2084895759,3,1.66305,10.297951,-5.79195,1781194367335
2084895769,3,1.8169501,10.05105,-5.5399504,1781194367347
2084895779,3,1.98195,9.90495,-5.289,1781194367355
2084895789,3,2.157,9.819,-5.27895,1781194367365
2084895799,3,2.286,10.03005,-5.085,1781194367375
2084895809,3,2.3050501,9.913051,-4.95405,1781194367385
2084895819,3,2.15895,9.691951,-4.9009504,1781194367395
2084895829,3,1.8889501,9.498,-4.8840003,1781194367406
2084895840,3,1.6470001,9.30405,-4.8030005,1781194367416
2084895850,3,1.4310001,9.11505,-4.80795,1781194367426
2084895860,3,1.2229501,8.95005,-4.7530503,1781194367436
2084895870,3,1.02705,8.814,-4.71705,1781194367446
2084895880,3,0.81405,8.668051,-4.7410502,1781194367456
2084895890,3,0.57195,8.44305,-4.53195,1781194367466
2084895900,3,0.44700003,8.19795,-4.59495,1781194367476
2084895910,3,0.354,8.148001,-4.46805,1781194367486
2084895920,3,0.22200002,8.14095,-4.3309503,1781194367497
2084895930,3,0.079050004,8.233951,-4.14195,1781194367506
2084895940,3,-0.093,8.445001,-4.00995,1781194367517
2084895950,3,-0.26505002,8.70405,-3.8070002,1781194367527
2084895960,3,-0.33705002,9.024,-3.76095,1781194367537
2084895971,3,-0.37500003,9.38805,-4.0339503,1781194367547
2084895981,3,-0.38505003,9.52005,-3.8740501,1781194367557
2084895991,3,-0.34395,9.67605,-3.9190502,1781194367567
2084896001,3,-0.26295,9.60105,-3.76395,1781194367577
2084896011,3,-0.23400001,9.68505,-3.76395,1781194367587
2084896021,3,-0.18105,9.75195,-3.7879503,1781194367597
2084896031,3,-0.057000004,9.793051,-3.9840002,1781194367607
2084896041,3,0.03795,9.783,-4.12995,1781194367617
2084896051,3,0.177,9.658951,-4.197,1781194367628
2084896061,3,0.21705002,9.56295,-4.28595,1781194367637
2084896071,3,0.20805001,9.496051,-4.3099504,1781194367647
2084896081,3,0.16695,9.42195,-4.3380003,1781194367658
2084896091,3,0.18405001,9.3,-4.36005,1781194367667
2084896101,3,0.23400001,9.273001,-4.67595,1781194367678
2084896112,3,0.109950006,9.340051,-5.0500503,1781194367688
2084896122,3,0.49005002,9.016951,-4.9900503,1781194367698
2084896132,3,0.23895001,9.003,-4.4290504,1781194367708
2084896142,3,-0.069000006,9.142051,-4.2259502,1781194367722
2084896152,3,-0.025950002,9.20205,-3.8140502,1781194367728
2084896162,3,-0.028050002,9.163051,-3.6319501,1781194367740
2084896172,3,-0.165,9.204,-3.61995,1781194367748
2084896182,3,-0.16905001,9.163051,-3.6150002,1781194367758
2084896192,3,-0.23895001,8.94495,-3.55605,1781194367768
2084896202,3,-0.36795002,8.920951,-3.5460002,1781194367778
2084896212,3,-0.49305,8.92395,-3.55095,1781194367788
2084896222,3,-0.61200005,8.986051,-3.6150002,1781194367798
2084896232,3,-0.81405,9.048,-3.6799502,1781194367808
2084896243,3,-0.924,9.096001,-3.5359502,1781194367819
2084896253,3,-1.02705,9.10095,-3.3780003,1781194367828
2084896263,3,-1.098,9.151051,-3.31095,1781194367839
2084896273,3,-1.1340001,9.217951,-3.249,1781194367848
2084896283,3,-1.113,9.27795,-3.25395,1781194367859
2084896293,3,-1.0699501,9.336,-3.1720502,1781194367868
2084896303,3,-1.077,9.40005,-3.1200001,1781194367879
2084896313,3,-1.0890001,9.439051,-3.0960002,1781194367889
2084896323,3,-1.065,9.460051,-3.1890001,1781194367899
2084896333,3,-1.01505,9.40995,-3.2710502,1781194367910
2084896343,3,-0.95205003,9.38805,-3.34995,1781194367919
2084896353,3,-0.87105006,9.252001,-3.3979502,1781194367930
2084896363,3,-0.80895007,9.17805,-3.3760502,1781194367940
2084896374,3,-0.76305,9.15795,-3.2970002,1781194367950
2084896384,3,-0.70095,9.193951,-3.3330002,1781194367960
2084896394,3,-0.62700003,9.283051,-3.42105,1781194367970
2084896404,3,-0.52395004,9.4150505,-3.6370502,1781194367981
2084896414,3,-0.36105,9.5460005,-3.8839502,1781194367990
2084896424,3,-0.20295002,9.661051,-4.1779504,1781194368002
2084896434,3,-0.00405,9.72795,-4.3770003,1781194368010
2084896444,3,0.109950006,9.703951,-4.4610004,1781194368020
2084896454,3,0.18105,9.63195,-4.48395,1781194368031
2084896464,3,0.17895001,9.496051,-4.4149504,1781194368041
2084896474,3,0.081,9.427051,-4.3050003,1781194368051
2084896484,3,0.009000001,9.295051,-4.15905,1781194368060
2084896494,3,-0.021000002,9.228001,-4.2330003,1781194368071
2084896504,3,-0.105000004,9.172951,-4.25895,1781194368081
2084896515,3,-0.22695,9.144,-4.26195,1781194368091
2084896525,3,-0.25800002,9.123,-4.14195,1781194368101
2084896535,3,-0.30795002,9.156,-3.9550502,1781194368111
2084896545,3,-0.21000001,9.14595,-3.9460502,1781194368121
2084896555,3,-0.201,9.111,-3.7180502,1781194368131
2084896565,3,-0.21705002,9.07905,-3.5839503,1781194368141
2084896575,3,-0.26505002,9.036,-3.31605,1781194368151
2084896585,3,-0.27705002,9.027,-3.216,1781194368161
2084896595,3,-0.14805001,9.004951,-3.0859501,1781194368171
2084896605,3,-0.15,9.051001,-3.357,1781194368181
2084896615,3,-0.03795,9.08895,-3.4980001,1781194368191
2084896625,3,0.105000004,9.192,-3.79695,1781194368201
2084896635,3,0.00405,9.217951,-3.8740501,1781194368211
2084896646,3,-0.040050004,9.08895,-3.6990001,1781194368222
2084896656,3,-0.045,8.931001,-3.58905,1781194368232
2084896666,3,-0.10005,8.866051,-3.61995,1781194368242
2084896676,3,-0.165,8.908951,-3.8569503,1781194368252
2084896686,3,-0.14595,8.907001,-4.12095,1781194368262
2084896696,3,-0.16005,9.0390005,-4.39305,1781194368272
2084896706,3,-0.11895001,9.151051,-4.5349503,1781194368282
2084896716,3,-0.045,9.333,-4.6519504,1781194368292
2084896726,3,0.06705,9.4789505,-4.7449503,1781194368302
2084896736,3,0.16995001,9.496051,-4.7530503,1781194368312
2084896746,3,0.23400001,9.472051,-4.6140003,1781194368322
2084896756,3,0.33195,9.364051,-4.4149504,1781194368332
2084896766,3,0.44205,9.297001,-4.293,1781194368342
2084896776,3,0.49005002,9.144,-4.14405,1781194368352
2084896787,3,0.52095,9.016951,-4.2000003,1781194368363
2084896797,3,0.56700003,8.92395,-4.1779504,1781194368373
2084896807,3,0.64095,8.89305,-4.2400503,1781194368383
2084896817,3,0.60795003,8.838,-4.257,1781194368393
2084896827,3,0.57195,8.988001,-4.2070503,1781194368403
2084896837,3,0.53595,9.108001,-4.149,1781194368413
2084896847,3,0.55995005,9.187051,-4.137,1781194368423
2084896857,3,0.46605003,8.509951,-3.85995,1781194368433
2084896867,3,0.25995,9.5460005,-4.04895,1781194368443
2084896877,3,0.49005002,9.352051,-4.2790504,1781194368453
2084896887,3,0.35595003,9.538951,-4.056,1781194368463
2084896897,3,0.41805002,9.514951,-4.29495,1781194368473
2084896907,3,0.30405003,9.64395,-4.293,1781194368484
2084896918,3,0.24405001,9.61095,-4.2520504,1781194368494
2084896928,3,0.177,9.805051,-4.3099504,1781194368504
2084896938,3,0.22200002,9.831,-4.1800504,1781194368514
2084896948,3,0.15,9.86205,-4.23495,1781194368524
2084896958,3,0.064050004,9.976951,-4.08195,1781194368534
2084896968,3,-0.093,10.092,-4.3219504,1781194368544
2084896978,3,-0.21705002,10.044001,-4.3219504,1781194368553
2084896988,3,-0.26505002,9.766951,-4.6590004,1781194368564
2084896998,3,-0.124050006,10.00395,-5.1259503,1781194368574
2084897008,3,0.0,9.670951,-5.2990503,1781194368583
2084897018,3,0.14295001,9.37905,-4.82205,1781194368595
2084897028,3,0.25305,9.15795,-4.3840504,1781194368605
2084897038,3,0.23400001,9.027,-4.35795,1781194368615
2084897049,3,0.064050004,8.91195,-4.2190504,1781194368625
2084897059,3,-0.19305001,8.325001,-3.5839503,1781194368635
2084897069,3,-0.35595003,7.8919506,-2.73195,1781194368645
2084897079,3,-0.49995002,7.9009504,-1.9710001,1781194368655
2084897089,3,-0.78195006,8.13795,-1.3600501,1781194368665
2084897099,3,-1.10595,8.47605,-0.90000004,1781194368674
2084897109,3,-1.24695,8.887951,-0.97005004,1781194368685
2084897119,3,-1.00995,8.979,-1.5079501,1781194368695
2084897129,3,-0.82305,8.727,-2.05395,1781194368706
2084897139,3,-0.53295004,8.920951,-2.6220002,1781194368715
2084897149,3,-0.141,9.132,-3.4810503,1781194368726
2084897159,3,0.23205002,9.331051,-4.1730003,1781194368735
2084897169,3,0.51405,9.441,-4.81995,1781194368746
2084897179,3,0.72,9.55605,-5.5399504,1781194368755
2084897190,3,0.924,9.56805,-5.808,1781194368765
2084897200,3,1.0000501,9.621,-6.096,1781194368776
2084897210,3,0.933,9.735001,-6.1270504,1781194368785
2084897220,3,0.87105006,9.703951,-5.98995,1781194368796
2084897230,3,0.735,9.573001,-5.8110003,1781194368806
2084897240,3,0.59295005,9.439051,-5.6650505,1781194368815
2084897250,3,0.51900005,9.273001,-5.4640503,1781194368826
2084897260,3,0.50205004,9.015,-5.13105,1781194368835
2084897270,3,0.58395004,8.65095,-4.4869504,1781194368846
2084897280,3,0.648,8.44695,-3.69,1781194368856
2084897290,3,0.624,8.20605,-2.94705,1781194368866
2084897300,3,0.58095,8.148001,-2.2390501,1781194368876
2084897310,3,0.55005,8.233951,-1.8840001,1781194368887
2084897321,3,0.57405,8.22,-1.7190001,1781194368897
2084897331,3,0.63600004,8.10495,-1.6639501,1781194368906
2084897341,3,0.79695004,7.9249506,-1.7740501,1781194368918
2084897351,3,1.04295,7.8750005,-1.9710001,1781194368927
2084897361,3,1.3740001,7.9470005,-2.25105,1781194368937
2084897371,3,1.6680001,8.071051,-3.01395,1781194368947
2084897381,3,1.95105,8.16495,-3.85995,1781194368957
2084897391,3,2.21895,8.392051,-4.9110003,1781194368967
2084897401,3,2.463,8.63895,-6.0720005,1781194368978
2084897411,3,2.772,8.875951,-6.8640003,1781194368987
2084897421,3,3.1050003,9.12705,-7.46295,1781194368997
2084897431,3,3.3319502,8.943001,-7.5799503,1781194369007
2084897441,3,3.4810503,8.799001,-7.0339503,1781194369018
2084897452,3,3.5740502,8.542951,-6.156,1781194369027
2084897462,3,3.4690502,8.536051,-5.42805,1781194369038
2084897472,3,3.00705,8.60505,-4.67595,1781194369048
2084897482,3,2.286,8.81595,-4.1470504,1781194369058
2084897492,3,1.764,9.11295,-3.9190502,1781194369068
2084897502,3,1.27995,9.319051,-3.7020001,1781194369078
2084897512,3,0.75405,9.70005,-3.6870003,1781194369088
2084897522,3,0.31605002,9.723001,-3.6349502,1781194369098
2084897532,3,0.079050004,9.19005,-3.1890001,1781194369108
2084897542,3,0.105000004,8.13405,-2.1790502,1781194369118
2084897552,3,0.51705,7.9090505,-2.2120502,1781194369128
2084897562,3,0.77295005,7.1520004,-2.01405,1781194369138
2084897572,3,1.233,6.5080504,-2.1330001,1781194369148
2084897582,3,1.40505,6.3910503,-2.2440002,1781194369159
2084897593,3,1.6540501,7.8150005,-4.5540004,1781194369169
2084897603,3,1.6200001,8.839951,-5.703,1781194369179
2084897613,3,1.338,9.73095,-6.1480503,1781194369189
2084897623,3,0.84195006,10.909051,-7.2400503,1781194369199
2084897633,3,0.23700002,11.517,-8.193001,1781194369209
2084897643,3,-0.33900002,11.94795,-8.239051,1781194369219
2084897653,3,-0.61200005,11.598001,-7.6110005,1781194369229
2084897663,3,-0.65805006,10.64505,-6.4669504,1781194369239
2084897673,3,-0.72300005,9.90795,-5.1400504,1781194369249
2084897683,3,-0.75105006,9.312,-4.1400003,1781194369259
2084897693,3,-0.81105006,8.896951,-3.4620001,1781194369269
2084897703,3,-0.74205005,8.668051,-3.0859501,1781194369279
2084897713,3,-0.61995006,8.54595,-2.94495,1781194369290
2084897724,3,-0.49695003,8.509951,-3.1369503,1781194369300
2084897734,3,-0.27495003,8.524051,-3.41895,1781194369310
2084897744,3,-0.009000001,8.514,-3.6030002,1781194369320
2084897754,3,0.19800001,8.61705,-3.89595,1781194369330
2084897764,3,0.423,8.707951,-4.0680003,1781194369341
2084897774,3,0.58605003,8.75595,-4.2910504,1781194369350
2084897784,3,0.744,8.866051,-4.5540004,1781194369361
2084897794,3,0.90705,8.919001,-4.8240004,1781194369370
2084897804,3,1.05795,9.007951,-5.08995,1781194369381
2084897814,3,1.2210001,9.1060505,-5.2870502,1781194369391
2084897824,3,1.3909501,9.20205,-5.50395,1781194369401
2084897834,3,1.4959501,9.285001,-5.5930505,1781194369411
2084897844,3,1.5409501,9.4459505,-5.583,1781194369420
2084897854,3,1.5649501,9.537001,-5.4540005,1781194369431
2084897865,3,1.5649501,9.622951,-5.2050004,1781194369440
2084897875,3,1.5960001,9.594001,-4.992,1781194369451
2084897885,3,1.6129501,9.52995,-4.80495,1781194369461
2084897895,3,1.60395,9.441,-4.6260004,1781194369471
2084897905,3,1.62495,9.313951,-4.49895,1781194369481
2084897915,3,1.6009501,9.24705,-4.45095,1781194369491
2084897925,3,1.5510001,9.25905,-4.48395,1781194369501
2084897935,3,1.491,9.25695,-4.51305,1781194369511
2084897945,3,1.44105,9.23295,-4.5799503,1781194369521
2084897955,3,1.3909501,9.196951,-4.61595,1781194369531
2084897965,3,1.3570501,9.17805,-4.5679502,1781194369541
2084897975,3,1.28295,9.172951,-4.45095,1781194369552
2084897985,3,1.1730001,9.192,-4.26195,1781194369561
2084897996,3,1.09605,9.213,-4.137,1781194369571
2084898006,3,1.005,9.237,-4.092,1781194369582
2084898016,3,0.98100007,9.26895,-4.06995,1781194369592
2084898026,3,0.95205003,9.30405,-4.032,1781194369602
2084898036,3,0.90495,9.336,-3.9720001,1781194369612
2084898046,3,0.84495,9.352051,-3.9070501,1781194369622
2084898056,3,0.79695004,9.40995,-3.9070501,1781194369632
2084898066,3,0.72495,9.51,-3.9070501,1781194369642
2084898076,3,0.66705,9.646951,-3.9100502,1781194369652
2084898086,3,0.63405,9.769051,-3.9120002,1781194369662
2084898096,3,0.59295005,9.786,-3.7759502,1781194369672
2084898106,3,0.53295004,9.7879505,-3.6060002,1781194369682
2084898116,3,0.52395004,9.786,-3.426,1781194369692
2084898127,3,0.47400004,9.850051,-3.35205,1781194369702
2084898137,3,0.47400004,9.96,-3.381,1781194369713
2084898147,3,0.47100002,9.99405,-3.3090003,1781194369723
2084898157,3,0.47400004,10.07295,-3.2920501,1781194369733
2084898167,3,0.44205,10.21905,-3.34995,1781194369743
2084898177,3,0.45000002,10.305,-3.3640501,1781194369753
2084898187,3,0.43995002,10.344001,-3.2989502,1781194369763
2084898197,3,0.42600003,10.36695,-3.141,1781194369773
2084898207,3,0.39900002,10.341001,-2.8560002,1781194369783
2084898217,3,0.37995002,10.240951,-2.4490502,1781194369794
2084898227,3,0.39195,10.023001,-1.9110001,1781194369803
2084898237,3,0.411,9.762,-1.31895,1781194369813
2084898247,3,0.40695003,9.592051,-0.91695005,1781194369823
2084898257,3,0.48600003,9.27105,-0.75405,1781194369833
2084898268,3,0.55995005,8.89995,-0.66300005,1781194369843
2084898278,3,0.63900006,8.68395,-0.711,1781194369857
2084898288,3,0.69900006,8.530951,-0.90300006,1781194369864
2084898298,3,0.82800007,8.536051,-1.2280501,1781194369874
2084898308,3,0.984,8.554951,-1.6470001,1781194369884
2084898318,3,1.25205,8.610001,-2.11395,1781194369894
2084898328,3,1.51995,8.799001,-2.50005,1781194369904
2084898338,3,1.8000001,8.92395,-2.97105,1781194369913
2084898348,3,2.14995,9.24195,-2.9980502,1781194369924
2084898358,3,2.50095,9.349951,-3.084,1781194369934
2084898368,3,2.7960002,9.505951,-2.8830001,1781194369945
2084898378,3,2.6190002,9.85305,-2.2339501,1781194369955
2084898388,3,2.9490001,9.621,-2.0350502,1781194369964
2084898399,3,3.2389503,9.597,-1.83405,1781194369975
2084898409,3,3.5479503,9.23295,-1.6570501,1781194369985
2084898419,3,3.7729502,8.859,-1.281,1781194369995
2084898429,3,3.6870003,8.517,-1.1329501,1781194370005
2084898439,3,3.4140003,8.23695,-1.18005,1781194370015
2084898449,3,3.18105,7.8580503,-1.3290001,1781194370025
2084898459,3,3.0499501,7.5520506,-1.4800501,1781194370035
2084898469,3,2.9560502,7.2769504,-1.6570501,1781194370047
2084898479,3,2.8990502,7.1620502,-1.9060501,1781194370055
2084898489,3,2.87295,7.143,-2.16405,1781194370065
2084898499,3,2.8870502,7.28595,-2.3029501,1781194370075
2084898509,3,2.8890002,7.7869506,-2.394,1781194370085
2084898519,3,2.8489501,8.31105,-2.538,1781194370095
2084898530,3,2.64,8.887951,-2.7580502,1781194370106
2084898540,3,2.39595,9.621,-2.7150002,1781194370116
2084898550,3,2.1730502,10.782001,-2.32305,1781194370126
2084898560,3,1.79295,12.046051,-2.1739502,1781194370136
2084898570,3,1.2400501,12.793051,-2.06205,1781194370146
2084898580,3,0.708,12.970051,-2.04705,1781194370156
2084898590,3,0.23400001,12.658951,-1.9080001,1781194370166
2084898600,3,-0.13605,11.976001,-1.7220001,1781194370176
2084898610,3,-0.42105,11.16195,-1.6189501,1781194370186
2084898620,3,-0.615,10.305,-1.338,1781194370196
2084898630,3,-0.73695004,9.670951,-1.09695,1781194370206
2084898640,3,-0.76305,9.30195,-1.04595,1781194370216
2084898650,3,-0.79905003,8.95695,-0.93105006,1781194370226
2084898660,3,-0.79905003,8.857051,-0.99600005,1781194370236
2084898671,3,-0.81600004,9.003,-1.1899501,1781194370247
2084898681,3,-0.61200005,9.3,-1.269,1781194370257
2084898691,3,-0.24795002,9.60105,-1.28295,1781194370267
2084898701,3,0.061950002,9.946051,-1.4290501,1781194370277
2084898711,3,0.35895002,10.264951,-1.5079501,1781194370287
2084898721,3,0.52605003,10.581,-1.6350001,1781194370297
2084898731,3,0.651,10.803,-1.7809501,1781194370307
2084898741,3,0.80595005,10.686001,-1.8940501,1781194370319
2084898751,3,0.88500005,10.329,-2.06205,1781194370327
2084898761,3,0.86100006,9.826051,-2.1450002,1781194370337
2084898771,3,0.73005,9.336,-2.11905,1781194370347
2084898781,3,0.53805,8.895,-1.9729501,1781194370357
2084898791,3,0.39495003,8.47605,-1.8010501,1781194370367
2084898802,3,0.33900002,8.16705,-1.7380501,1781194370378
2084898812,3,0.31605002,7.8919506,-1.5829501,1781194370388
2084898822,3,0.25605002,8.103001,-1.8460501,1781194370398
2084898832,3,0.22695,8.941051,-2.8660502,1781194370408
2084898842,3,0.17895001,9.573001,-3.89805,1781194370418
2084898852,3,0.351,9.57705,-4.27605,1781194370428
2084898862,3,0.18900001,10.02495,-4.7190003,1781194370438
2084898872,3,0.14295001,10.609051,-4.57305,1781194370448
2084898882,3,-0.097950004,11.074051,-4.9560003,1781194370458
2084898892,3,-0.30795002,11.31105,-5.01405,1781194370468
2084898902,3,-0.52605003,11.646001,-5.1049504,1781194370478
2084898912,3,-0.69405,11.74905,-4.9009504,1781194370488
2084898922,3,-0.79005,11.50695,-4.2190504,1781194370499
2084898932,3,-0.80205005,11.433001,-4.10895,1781194370509
2084898943,3,-0.79200006,11.269951,-4.374,1781194370519
2084898953,3,-0.59295005,10.72395,-4.224,1781194370529
2084898963,3,-0.555,10.293,-4.14195,1781194370539
2084898973,3,-0.51705,9.766951,-4.1130004,1781194370549
2084898983,3,-0.46605003,9.192,-3.9940503,1781194370559
2084898993,3,-0.41805002,8.75595,-3.9409502,1781194370569
2084899003,3,-0.31305,8.574,-4.1130004,1781194370579
2084899013,3,-0.18405001,8.622001,-4.54005,1781194370589
2084899023,3,-0.094950005,8.60505,-4.8889503,1781194370599
2084899033,3,-0.126,8.46405,-4.95405,1781194370609
2084899043,3,-0.23205002,8.23695,-4.683,1781194370619
2084899053,3,-0.38700002,8.026051,-4.30305,1781194370630
2084899063,3,-0.675,8.12205,-3.8839502,1781194370640
2084899074,3,-0.87600005,8.224951,-3.7180502,1781194370650
2084899084,3,-1.00995,8.457001,-3.6490502,1781194370660
2084899094,3,-1.0360501,8.682,-3.6420002,1781194370670
2084899104,3,-1.0000501,8.799001,-3.5149503,1781194370680
2084899114,3,-0.933,8.842051,-3.2440503,1781194370690
2084899124,3,-0.84705,8.863951,-2.98095,1781194370701
2084899134,3,-0.79200006,8.863951,-2.7490501,1781194370710
2084899144,3,-0.75795,8.878051,-2.6550002,1781194370720
2084899154,3,-0.75405,8.895,-2.7130501,1781194370731
2084899164,3,-0.79200006,8.90205,-2.9620502,1781194370740
2084899174,3,-0.84705,8.92905,-3.28005,1781194370751
2084899184,3,-0.92595005,8.979,-3.5670002,1781194370761
2084899194,3,-0.99300003,8.976001,-3.8359501,1781194370771
2084899205,3,-1.05495,8.93805,-3.9720001,1781194370780
2084899215,3,-1.197,8.96205,-3.8689501,1781194370791
2084899225,3,-1.2400501,8.845051,-3.8790002,1781194370800
2084899235,3,-1.2540001,8.754001,-3.663,1781194370811
2084899245,3,-1.2970501,8.62005,-3.4330502,1781194370821
2084899255,3,-1.26795,8.50695,-3.22005,1781194370831
2084899265,3,-1.2040501,8.45895,-3.04305,1781194370840
2084899275,3,-1.1530501,8.41905,-2.9310002,1781194370851
2084899285,3,-1.113,8.50695,-2.775,1781194370861
2084899295,3,-1.125,8.857051,-2.53605,1781194370871
2084899305,3,-1.1770501,9.55095,-2.28705,1781194370882
2084899315,3,-1.077,10.423051,-2.2390501,1781194370891
2084899325,3,-0.78495,11.328,-2.457,1781194370901
2084899335,3,-0.39000002,12.052951,-2.7610502,1781194370912
2084899346,3,0.102000006,12.312,-3.0889502,1781194370921
2084899356,3,0.59595,12.217951,-3.34695,1781194370932
2084899366,3,1.0030501,11.847,-3.2970002,1781194370942
2084899376,3,1.2040501,11.316001,-2.9350502,1781194370952
2084899386,3,1.29495,10.783951,-2.2720501,1781194370962
2084899396,3,1.2040501,10.269,-1.64505,1781194370972
2084899406,3,0.90705,9.858001,-1.3120501,1781194370982
2084899416,3,0.56505,9.489,-1.1040001,1781194370992
2084899426,3,0.40395,9.23295,-1.0320001,1781194371002
2084899436,3,0.34905002,9.07695,-1.212,1781194371013
2084899446,3,0.43500003,9.036,-1.45605,1781194371023
2084899456,3,0.66495,9.15795,-1.7380501,1781194371033
2084899466,3,0.87600005,9.336,-2.1379502,1781194371043
2084899477,3,1.005,9.56295,-2.56695,1781194371053
2084899487,3,1.2540001,9.913051,-2.63895,1781194371063
2084899497,3,1.71105,10.20495,-2.8639503,1781194371073
2084899507,3,2.19705,10.578,-2.98305,1781194371083
2084899517,3,2.6520002,10.879951,-3.01005,1781194371093
2084899527,3,2.9640002,10.92105,-2.9860501,1781194371103
2084899537,3,3.25305,10.891951,-2.9950502,1781194371113
2084899547,3,3.3780003,10.482,-3.0190501,1781194371123
2084899557,3,3.3370502,10.04205,-2.95005,1781194371133
2084899567,3,3.153,9.585,-2.8590002,1781194371143
2084899577,3,2.76705,9.360001,-2.907,1781194371153
2084899587,3,2.49405,9.11295,-2.83695,1781194371163
2084899597,3,2.28795,8.895,-2.84205,1781194371174
2084899607,3,2.13,8.689051,-2.8969502,1781194371184
2084899618,3,2.04705,8.466001,-2.97405,1781194371194
2084899628,3,1.9770001,8.29395,-3.1320002,1781194371204
2084899638,3,1.881,8.16195,-3.2320502,1781194371214
2084899648,3,1.74195,7.96605,-3.426,1781194371224
2084899658,3,1.6300501,7.9420505,-3.49095,1781194371234
2084899668,3,1.539,8.02095,-3.4740002,1781194371244
2084899678,3,1.52205,8.215051,-3.3760502,1781194371254
2084899688,3,1.6060501,8.51895,-3.216,1781194371264
2084899698,3,1.6900501,8.92905,-3.0289502,1781194371274
2084899708,3,1.7760001,9.357,-2.8900502,1781194371284
2084899718,3,1.8529501,9.7879505,-2.844,1781194371294
2084899728,3,1.932,10.044001,-2.904,1781194371304
2084899738,3,2.013,10.23795,-3.0289502,1781194371315
2084899749,3,2.121,10.300051,-3.0979502,1781194371325
2084899759,3,2.21895,10.291051,-3.0910501,1781194371335
2084899769,3,2.3050501,10.284,-3.0670502,1781194371345
2084899779,3,2.38905,10.273951,-3.0649502,1781194371355
2084899789,3,2.4420002,10.21695,-3.1270502,1781194371365
2084899799,3,2.463,10.1640005,-3.2730002,1781194371375
2084899809,3,2.4079502,10.07505,-3.4480503,1781194371385
2084899819,3,2.2840502,9.96,-3.62295,1781194371395
2084899829,3,2.11095,9.84105,-3.6750002,1781194371405
2084899839,3,1.9290001,9.69495,-3.7090502,1781194371415
2084899849,3,1.7760001,9.441,-3.7810502,1781194371425
2084899859,3,1.6489501,9.166051,-3.7930503,1781194371436
2084899869,3,1.55595,8.91705,-3.7180502,1781194371446
2084899880,3,1.4670001,8.787001,-3.627,1781194371456
2084899890,3,1.3950001,8.598001,-3.627,1781194371466
2084899900,3,1.31895,8.524051,-3.72795,1781194371476
2084899910,3,1.2610501,8.490001,-3.8790002,1781194371486
2084899920,3,1.314,8.514,-3.9529502,1781194371496
2084899930,3,1.4770501,8.554951,-3.9889503,1781194371506
2084899940,3,1.6350001,8.610001,-4.0150504,1781194371516
2084899950,3,1.812,8.644051,-4.0420504,1781194371526
2084899960,3,1.9720501,8.668051,-4.1130004,1781194371536
2084899970,3,2.05605,8.73705,-4.2190504,1781194371547
2084899980,3,2.14695,8.89995,-4.269,1781194371556
2084899990,3,2.2399502,9.08895,-4.36005,1781194371566
2084900000,3,2.3410501,9.276,-4.4170504,1781194371576
2084900010,3,2.4060001,9.336,-4.2829504,1781194371587
2084900021,3,2.3820002,9.30195,-4.0800004,1781194371597
2084900031,3,2.3080502,9.1699505,-3.8050501,1781194371607
2084900041,3,2.2090502,9.004951,-3.5820003,1781194371617
2084900051,3,2.13,8.835,-3.49095,1781194371627
2084900061,3,2.082,8.701051,-3.52005,1781194371637
2084900071,3,2.04705,8.644051,-3.6370502,1781194371647
2084900081,3,2.05605,8.689051,-3.7759502,1781194371657
2084900091,3,2.09205,8.77305,-3.92895,1781194371667
2084900101,3,2.1379502,8.875951,-4.056,1781194371677
2084900111,3,2.13,8.967,-4.209,1781194371687
2084900121,3,2.157,9.036,-4.2790504,1781194371697
2084900131,3,2.1780002,9.07695,-4.40805,1781194371707
2084900141,3,2.20005,9.07905,-4.4770503,1781194371718
2084900152,3,2.21895,9.043051,-4.58295,1781194371728
2084900162,3,2.2690501,8.92605,-4.6210504,1781194371738
2084900172,3,2.3080502,8.75895,-4.578,1781194371748
2084900182,3,2.3149502,8.613001,-4.35795,1781194371758
2084900192,3,2.2759502,8.656051,-4.08495,1781194371768
2084900202,3,2.2480502,8.68395,-3.8380501,1781194371778
2084900212,3,2.229,8.75895,-3.522,1781194371788
2084900222,3,2.1690001,8.92605,-3.4069502,1781194371798
2084900232,3,2.0680501,9.427051,-3.41895,1781194371808
2084900242,3,2.05095,10.332001,-3.6319501,1781194371818
2084900252,3,1.9530001,11.526001,-3.7230003,1781194371828
2084900262,3,1.64205,12.462001,-3.7780502,1781194371839
2084900272,3,1.197,13.120951,-3.79695,1781194371849
2084900283,3,0.80205005,12.979951,-3.79695,1781194371859
2084900293,3,0.54495,12.160951,-3.66105,1781194371869
2084900303,3,0.37995002,11.30595,-3.41895,1781194371879
2084900313,3,0.26505002,10.52595,-3.28005,1781194371889
2084900323,3,0.19095,9.798,-3.2680502,1781194371898
2084900333,3,0.26295,9.166051,-3.31395,1781194371909
2084900343,3,0.42600003,8.6320505,-3.426,1781194371919
2084900353,3,0.68895006,8.301001,-3.5440502,1781194371929
2084900363,3,0.96195006,8.052,-3.69,1781194371940
2084900373,3,1.197,7.8300004,-3.7399502,1781194371949
2084900383,3,1.4820001,7.5850506,-3.6990001,1781194371959
2084900393,3,1.7329501,7.42005,-3.663,1781194371969
2084900403,3,1.9630501,7.3009505,-3.5629501,1781194371980
2084900413,3,2.1040502,7.2120004,-3.4140003,1781194371990
2084900424,3,2.1379502,7.2259502,-3.4309502,1781194372000
2084900434,3,1.9390501,7.53,-3.6780002,1781194372010
2084900444,3,1.6609501,8.050051,-3.6130502,1781194372020
2084900454,3,1.16505,8.521951,-4.0420504,1781194372030
2084900464,3,0.57195,8.98095,-4.45305,1781194372041
2084900474,3,0.058950003,9.37605,-4.8030005,1781194372051
2084900484,3,-0.66300005,9.65205,-5.0610003,1781194372061
2084900494,3,-1.31595,9.814051,-5.3820004,1781194372070
2084900504,3,-1.9030501,9.811951,-5.50005,1781194372080
2084900514,3,-2.403,9.68295,-5.5020003,1781194372091
2084900524,3,-2.77005,9.321,-5.3490005,1781194372101
2084900534,3,-2.9299502,8.89995,-4.97805,1781194372111
2084900544,3,-3.0540001,8.529,-4.59,1781194372120
2084900555,3,-3.0859501,8.227051,-4.281,1781194372131
2084900565,3,-3.04305,7.9849505,-3.9510002,1781194372140
2084900575,3,-2.9230502,7.8970504,-3.5700002,1781194372150
2084900585,3,-2.72895,7.7550006,-3.3739502,1781194372161
2084900595,3,-2.604,7.7820005,-3.2680502,1781194372171
2084900605,3,-2.523,7.8079505,-3.2389503,1781194372181
2084900615,3,-2.5129502,7.8610506,-3.34995,1781194372191
2084900625,3,-2.5420501,7.9999504,-3.4050002,1781194372201
2084900635,3,-2.6160002,8.19795,-3.49305,1781194372211
2084900645,3,-2.6590502,8.46405,-3.6060002,1781194372221
2084900655,3,-2.6449502,8.847,-3.7450502,1781194372231
2084900665,3,-2.499,9.20205,-3.9049501,1781194372241
2084900675,3,-2.25705,9.592051,-3.8740501,1781194372252
2084900685,3,-1.98405,10.04895,-3.52905,1781194372262
2084900696,3,-1.764,10.5709505,-3.1270502,1781194372275
2084900706,3,-1.4650501,11.509951,-2.83995,1781194372281
2084900716,3,-1.077,11.79405,-2.29095,1781194372292
2084900726,3,-0.71505004,11.707951,-2.2390501,1781194372301
2084900736,3,-0.41400003,11.99295,-2.3370001,1781194372311
2084900746,3,-0.162,12.07005,-2.53095,1781194372322
2084900756,3,-0.043050002,12.024,-3.084,1781194372332
2084900766,3,0.064050004,11.392051,-3.6850502,1781194372342
2084900776,3,0.093,10.5730505,-4.0680003,1781194372352
2084900786,3,0.112050004,9.774,-3.936,1781194372362
2084900796,3,0.12195001,8.754001,-3.73305,1781194372372
2084900806,3,0.064050004,8.227051,-3.4140003,1781194372382
2084900816,3,0.093,7.8940506,-3.3619502,1781194372393
2084900827,3,0.15300001,7.90605,-3.3780003,1781194372403
2084900837,3,0.27495003,8.182051,-3.5029502,1781194372413
2084900847,3,0.49500003,8.581051,-3.8479502,1781194372423
2084900857,3,0.90195006,9.10305,-4.10895,1781194372433
2084900867,3,1.3789501,9.621,-4.11105,1781194372443
2084900877,3,1.8409501,10.02,-3.8860502,1781194372453
2084900887,3,2.36295,10.408051,-3.7159503,1781194372463
2084900897,3,2.7270002,10.450951,-3.58695,1781194372473
2084900907,3,3.0310502,10.240951,-3.6990001,1781194372483
2084900917,3,3.213,9.89805,-3.8209503,1781194372493
2084900927,3,3.2940001,9.594001,-3.8860502,1781194372504
2084900937,3,3.2959502,9.23505,-4.02,1781194372514
2084900947,3,3.2940001,8.80395,-4.125,1781194372523
2084900958,3,3.25605,8.34195,-4.1329503,1781194372534
2084900968,3,3.1309502,7.9879503,-4.09695,1781194372544
2084900978,3,2.91105,7.7820005,-4.12095,1781194372554
2084900988,3,2.7270002,7.6050005,-4.1329503,1781194372564
2084900998,3,2.59995,7.5160503,-4.1400003,1781194372574
2084901008,3,2.50095,7.4730005,-4.1059504,1781194372584
2084901018,3,2.5090501,7.53,-4.1329503,1781194372593
2084901028,3,2.5570502,7.7820005,-4.23495,1781194372603
2084901038,3,2.6520002,8.11695,-4.3650002,1781194372613
2084901048,3,2.73405,8.422951,-4.4170504,1781194372624
2084901058,3,2.79795,8.698951,-4.4100003,1781194372634
2084901068,3,2.832,8.919001,-4.3500004,1781194372644
2084901078,3,2.80605,9.163051,-4.3099504,1781194372655
2084901088,3,2.76195,9.43095,-4.1950502,1781194372665
2084901099,3,2.7190502,9.678,-4.1010003,1781194372675
2084901109,3,2.703,9.92895,-4.0800004,1781194372685
2084901119,3,2.70495,10.011001,-4.104,1781194372695
2084901129,3,2.70495,10.011001,-4.22805,1781194372705
2084901139,3,2.76705,9.847951,-4.374,1781194372715
2084901149,3,2.841,9.68805,-4.48005,1781194372725
2084901159,3,2.937,9.469951,-4.49595,1781194372735
2084901169,3,3.0190501,9.313951,-4.563,1781194372745
2084901179,3,3.0859501,9.1699505,-4.563,1781194372755
2084901189,3,3.0570002,9.154051,-4.611,1781194372765
2084901199,3,2.9640002,8.964001,-4.635,1781194372775
2084901209,3,2.80305,8.88105,-4.6519504,1781194372786
2084901219,3,2.5900502,8.77095,-4.69005,1781194372796
2084901230,3,2.40105,8.72505,-4.722,1781194372805
2084901240,3,2.22405,8.718,-4.73295,1781194372816
2084901250,3,2.12295,8.658,-4.67805,1781194372826
2084901260,3,1.9800001,8.61705,-4.563,1781194372836
2084901270,3,1.8720001,8.6629505,-4.3770003,1781194372846
2084901280,3,1.7809501,8.809051,-4.21605,1781194372856
2084901290,3,1.6849501,8.967,-4.09905,1781194372866
2084901300,3,1.6060501,9.184951,-4.06995,1781194372876
2084901310,3,1.51995,9.462001,-4.15395,1781194372886
2084901320,3,1.5010501,9.64395,-4.3000503,1781194372896
2084901330,3,1.51005,9.58905,-4.49895,1781194372906
2084901340,3,1.55805,9.42195,-4.578,1781194372916
2084901350,3,1.6300501,9.120001,-4.5589504,1781194372926
2084901361,3,1.7070001,8.80605,-4.434,1781194372936
2084901371,3,1.8049501,8.562,-4.269,1781194372948
2084901381,3,1.83105,8.466001,-4.10895,1781194372957
2084901391,3,1.9219501,8.42595,-3.9960003,1781194372967
2084901401,3,1.9909501,8.34,-3.7879503,1781194372977
2084901411,3,2.09205,8.20605,-3.52005,1781194372987
2084901421,3,2.1330001,8.12205,-3.3780003,1781194372997
2084901431,3,2.15895,7.99695,-3.2610002,1781194373008
2084901441,3,2.1780002,7.9420505,-3.3070502,1781194373017
2084901451,3,2.1660001,7.9110003,-3.42405,1781194373027
2084901461,3,2.11095,7.9009504,-3.6010501,1781194373037
2084901471,3,2.0989501,7.9399505,-3.8140502,1781194373047
2084901481,3,2.08995,8.016001,-3.9960003,1781194373058
2084901491,3,2.1090002,8.11005,-4.08705,1781194373067
2084901502,3,2.118,8.191051,-4.1010003,1781194373078
2084901512,3,2.13,8.28495,-4.05795,1781194373088
2084901522,3,2.1019502,8.34,-3.9889503,1781194373098
2084901532,3,2.0320501,8.4210005,-3.9049501,1781194373108
2084901542,3,1.932,8.48805,-3.8860502,1781194373118
2084901552,3,1.8049501,8.56005,-3.8719501,1781194373128
2084901562,3,1.6969501,8.65995,-3.8880002,1781194373138
2084901572,3,1.5960001,8.743951,-3.9169502,1781194373148
2084901582,3,1.48395,8.778001,-3.96705,1781194373158
2084901592,3,1.36395,8.839951,-3.9910502,1781194373168
2084901602,3,1.3069501,8.919001,-4.0219502,1781194373179
2084901612,3,1.2709501,9.120001,-4.02705,1781194373188
2084901622,3,1.2540001,9.40995,-4.12305,1781194373198
2084901633,3,1.17495,9.7900505,-4.24695,1781194373208
2084901643,3,1.0339501,10.059,-4.3500004,1781194373219
2084901653,3,0.86895007,10.300051,-4.281,1781194373228
2084901663,3,0.63405,10.66905,-4.15395,1781194373238
2084901673,3,0.41400003,11.352,-4.04895,1781194373249
2084901683,3,0.15795001,11.811001,-4.23105,1781194373259
2084901693,3,-0.069000006,11.83005,-4.3050003,1781194373270
2084901703,3,-0.22005,11.49495,-4.21395,1781194373278
2084901713,3,-0.30600002,10.786051,-4.15395,1781194373288
2084901723,3,-0.37095,10.000951,-3.9529502,1781194373299
2084901733,3,-0.41400003,9.38595,-3.73305,1781194373309
2084901743,3,-0.531,8.907001,-3.6150002,1781194373319
2084901753,3,-0.65295005,8.548051,-3.52395,1781194373330
2084901763,3,-0.73905003,8.28495,-3.5700002,1781194373340
2084901774,3,-0.76605004,8.136001,-3.6679502,1781194373350
2084901784,3,-0.74205005,8.076,-3.8790002,1781194373361
2084901794,3,-0.69105005,8.080951,-4.1850004,1781194373370
2084901804,3,-0.58605003,8.25105,-4.4890504,1781194373381
2084901814,3,-0.37995002,8.530951,-4.7689505,1781194373390
2084901824,3,-0.07395,8.799001,-4.93905,1781194373401
2084901834,3,0.21000001,9.003,-5.0160003,1781194373411
2084901844,3,0.462,9.1699505,-4.9489503,1781194373420
2084901854,3,0.70605004,9.23295,-4.7569504,1781194373431
2084901864,3,0.87795,9.285001,-4.48395,1781194373441
2084901874,3,1.0360501,9.228001,-4.20405,1781194373450
2084901884,3,1.1890501,9.08205,-3.9220502,1781194373460
2084901894,3,1.26795,8.943001,-3.63,1781194373470
2084901905,3,1.28505,8.823,-3.4669502,1781194373481
2084901915,3,1.2709501,8.742001,-3.42105,1781194373491
2084901925,3,1.24905,8.754001,-3.3979502,1781194373501
2084901935,3,1.1869501,8.835,-3.4309502,1781194373511
2084901945,3,1.113,8.883,-3.4380002,1781194373521
2084901955,3,1.04595,8.953051,-3.5670002,1781194373530
2084901965,3,0.873,9.075001,-3.6349502,1781194373542
2084901975,3,0.76995003,9.166051,-3.7570503,1781194373551
2084901985,3,0.70305,9.225,-3.8089502,1781194373561
2084901995,3,0.65295005,9.361951,-3.8050501,1781194373571
2084902005,3,0.70305,9.372001,-3.7470002,1781194373582
2084902015,3,0.75600004,9.40995,-3.6780002,1781194373591
2084902025,3,0.79905003,9.46695,-3.6390002,1781194373602
2084902036,3,0.84000003,9.622951,-3.6109502,1781194373611
2084902046,3,0.87600005,9.723001,-3.6730502,1781194373622
2084902056,3,0.94305,9.802051,-3.7090502,1781194373632
2084902066,3,1.04595,9.769051,-3.7570503,1781194373642
2084902076,3,1.161,9.738001,-3.726,1781194373652
2084902086,3,1.26795,9.661051,-3.6700501,1781194373662
2084902096,3,1.419,9.58905,-3.6030002,1781194373672
2084902106,3,1.5490501,9.490951,-3.5670002,1781194373682
2084902116,3,1.6870501,9.34305,-3.5080502,1781194373692
2084902126,3,1.8529501,9.199051,-3.52905,1781194373702
2084902136,3,1.9240501,9.123,-3.5269501,1781194373712
2084902146,3,1.9939501,9.007951,-3.6180003,1781194373723
2084902156,3,2.09205,8.995951,-3.7159503,1781194373732
2084902166,3,2.157,8.92905,-3.7999501,1781194373742
2084902177,3,2.229,8.887951,-3.9220502,1781194373753
2084902187,3,2.25,8.839951,-3.9840002,1781194373763
2084902197,3,2.229,8.823,-3.92895,1781194373773
2084902207,3,2.1060002,8.878051,-3.8839502,1781194373783
2084902217,3,1.9459502,8.95995,-3.65805,1781194373793
2084902227,3,1.8259501,9.055051,-3.46005,1781194373803
2084902237,3,1.764,9.175051,-3.25395,1781194373813
2084902247,3,1.8019501,9.309,-3.10995,1781194373823
2084902257,3,1.848,9.38595,-2.95005,1781194373833
2084902267,3,1.8600001,9.58695,-2.80395,1781194373843
2084902277,3,1.9050001,9.723001,-2.775,1781194373853
2084902287,3,1.9219501,9.77595,-2.7889502,1781194373863
2084902297,3,1.9270501,9.7570505,-2.7870002,1781194373873
2084902308,3,1.9459502,9.666,-2.77005,1781194373884
2084902318,3,1.932,9.573001,-2.7580502,1781194373894
2084902328,3,1.9080001,9.46695,-2.80095,1781194373904
2084902338,3,1.86705,9.369,-2.9020503,1781194373913
2084902348,3,1.8139501,9.25695,-2.98095,1781194373924
2084902358,3,1.76205,9.144,-3.0259502,1781194373934
2084902368,3,1.6969501,8.998051,-2.9620502,1781194373944
2084902378,3,1.6369501,8.884951,-2.87595,1781194373954
2084902388,3,1.5630001,8.866051,-2.7820501,1781194373964
2084902398,3,1.4770501,8.92905,-2.6910002,1781194373974
2084902408,3,1.4100001,9.166051,-2.706,1781194373984
2084902418,3,1.3090501,9.501,-2.80605,1781194373994
2084902428,3,1.1920501,9.86505,-2.8609502,1781194374004
2084902438,3,1.14195,10.18095,-2.87295,1781194374015
2084902449,3,1.09605,10.36305,-2.775,1781194374027
2084902459,3,1.0669501,10.40295,-2.70795,1781194374035
2084902469,3,0.99105006,10.40295,-2.66505,1781194374044
2084902479,3,0.91905004,10.33605,-2.6170502,1781194374055
2084902489,3,0.84900004,10.24995,-2.631,1781194374065
2084902499,3,0.78000003,10.13805,-2.706,1781194374075
2084902509,3,0.72705,9.979951,-2.8519502,1781194374085
2084902519,3,0.70305,9.814051,-2.9329503,1781194374095
2084902529,3,0.65295005,9.582001,-3.0649502,1781194374105
2084902539,3,0.58395004,9.40005,-3.1390502,1781194374115
2084902549,3,0.51705,9.24705,-3.21105,1781194374125
2084902559,3,0.43005002,9.05805,-3.2629502,1781194374135
2084902569,3,0.354,8.92605,-3.318,1781194374146
2084902580,3,0.246,8.754001,-3.3229501,1781194374156
2084902590,3,0.11895001,8.682,-3.42405,1781194374166
2084902600,3,-0.057000004,8.706,-3.52905,1781194374176
2084902610,3,-0.27,8.766001,-3.63,1781194374186
2084902620,3,-0.45900002,8.86905,-3.759,1781194374196
2084902630,3,-0.65505004,8.967,-3.828,1781194374206
2084902640,3,-0.88305,9.03195,-3.8190002,1781194374216
2084902650,3,-1.0510501,9.13395,-3.76395,1781194374226
2084902660,3,-1.23,9.22305,-3.6420002,1781194374236
2084902670,3,-1.3759501,9.38595,-3.4140003,1781194374246
2084902680,3,-1.48395,9.58695,-3.2749503,1781194374256
2084902690,3,-1.5340501,9.754951,-3.0649502,1781194374266
2084902700,3,-1.5510001,10.01805,-2.8950002,1781194374276
2084902711,3,-1.5649501,10.165951,-2.8230002,1781194374287
2084902721,3,-1.59195,10.21695,-2.7820501,1781194374297
2084902731,3,-1.52505,10.245001,-2.8210502,1781194374307
2084902741,3,-1.52505,10.1640005,-2.8879502,1781194374317
2084902751,3,-1.5169501,10.012951,-2.8969502,1781194374327
2084902761,3,-1.4860501,9.850051,-2.904,1781194374337
2084902771,3,-1.4580001,9.63195,-3.04095,1781194374347
2084902781,3,-1.422,9.439051,-3.2320502,1781194374357
2084902791,3,-1.35195,9.26595,-3.3739502,1781194374367
2084902801,3,-1.2730501,9.13395,-3.45495,1781194374377
2084902811,3,-1.218,9.07905,-3.52005,1781194374387
2084902821,3,-1.2040501,9.08895,-3.45,1781194374397
2084902831,3,-1.17495,9.168,-3.38295,1781194374407
2084902841,3,-1.16505,9.26595,-3.3330002,1781194374418
2084902852,3,-1.1530501,9.40305,-3.2610002,1781194374428
2084902862,3,-1.1340001,9.58695,-3.1990502,1781194374438
2084902872,3,-1.1080501,9.783,-3.15105,1781194374448
2084902882,3,-1.1010001,9.927,-3.15105,1781194374458
2084902892,3,-1.1149501,10.06095,-3.14895,1781194374468
2084902902,3,-1.12695,10.01805,-3.1030502,1781194374478
2084902912,3,-1.0890001,9.91695,-3.0930002,1781194374488
2084902922,3,-1.0339501,9.670951,-2.9280002,1781194374498
2084902932,3,-0.89295006,9.352051,-2.871,1781194374508
2084902942,3,-0.76095,9.03405,-2.80395,1781194374518
2084902952,3,-0.57195,8.74905,-2.7820501,1781194374529
2084902962,3,-0.46905002,8.536051,-2.8180501,1781194374539
2084902972,3,-0.37995002,8.239051,-2.8639503,1781194374549
2084902983,3,-0.37305,8.043,-2.8180501,1781194374560
2084902993,3,-0.54495,8.337001,-2.835,1781194374568
2084903003,3,-0.71295005,8.62005,-2.7850502,1781194374578
2084903013,3,-0.79905003,8.955001,-2.706,1781194374588
2084903023,3,-0.79200006,9.25695,-2.595,1781194374599
2084903033,3,-0.75600004,9.594001,-2.4060001,1781194374608
2084903043,3,-0.70095,10.032001,-2.085,1781194374619
2084903053,3,-0.65295005,10.423051,-1.8750001,1781194374629
2084903063,3,-0.624,10.73595,-1.88205,1781194374639
2084903073,3,-0.52605003,10.85595,-2.0020502,1781194374649
2084903083,3,-0.45405003,10.771951,-2.29095,1781194374659
2084903093,3,-0.38295,10.627951,-2.64105,1781194374669
2084903103,3,-0.342,10.486951,-2.98095,1781194374679
2084903114,3,-0.31305,10.341001,-3.2440503,1781194374690
2084903124,3,-0.30105,10.264951,-3.4069502,1781194374700
2084903134,3,-0.26805001,10.245001,-3.5359502,1781194374710
2084903144,3,-0.282,10.284,-3.55095,1781194374720
2084903154,3,-0.25095,10.429951,-3.486,1781194374730
2084903164,3,-0.141,10.686001,-3.3619502,1781194374741
2084903174,3,-0.08595,10.86795,-3.5790002,1781194374751
2084903184,3,0.097950004,11.313001,-3.4960501,1781194374760
2084903194,3,0.37500003,11.731951,-3.6799502,1781194374770
2084903204,3,0.61005,12.079051,-4.0750504,1781194374781
2084903214,3,0.67695004,12.4789505,-4.4440503,1781194374791
2084903224,3,0.70095,12.880951,-4.70505,1781194374800
2084903234,3,0.675,13.248001,-4.80105,1781194374810
2084903244,3,0.62895006,13.552051,-4.84095,1781194374821
2084903255,3,0.62205005,13.810051,-4.52295,1781194374831
2084903265,3,0.65295005,13.97595,-4.0680003,1781194374841
2084903275,3,0.73695004,14.062051,-3.6679502,1781194374851
2084903285,3,0.76095,14.019001,-3.3780003,1781194374860
2084903295,3,0.82305,13.786051,-3.2950501,1781194374871
2084903305,3,0.90195006,13.168951,-3.25095,1781194374881
2084903315,3,0.91905004,12.3810005,-3.00705,1781194374891
2084903325,3,0.84000003,11.428051,-2.32305,1781194374901
2084903335,3,0.53295004,10.609051,-1.57305,1781194374912
2084903345,3,0.21300001,9.967951,-0.86895007,1781194374922
2084903355,3,0.021000002,9.361951,-0.29895002,1781194374931
2084903365,3,-0.04695,8.863951,-0.20805001,1781194374942
2084903375,3,-0.078,8.280001,0.064050004,1781194374951
2084903386,3,-0.177,8.194051,0.094950005,1781194374962
2084903396,3,-0.18405001,8.28705,0.40095,1781194374972
2084903406,3,-0.097950004,8.56005,0.66705,1781194374982
2084903416,3,-0.043050002,8.95995,0.71505004,1781194374992
2084903426,3,0.0139500005,9.333,0.72,1781194375002
2084903436,3,0.022950001,9.573001,0.67200005,1781194375012
2084903446,3,-0.055050004,9.654,0.53505003,1781194375023
2084903456,3,-0.15,9.646951,0.31695002,1781194375032
2084903466,3,-0.22695,9.58005,0.018000001,1781194375043
2084903476,3,-0.25800002,9.486,-0.38805002,1781194375052
2084903486,3,-0.29895002,9.427051,-0.84495,1781194375062
2084903496,3,-0.32505003,9.4150505,-1.29795,1781194375073
2084903506,3,-0.294,9.369,-1.5300001,1781194375082
2084903516,3,-0.26505002,9.264001,-1.6380001,1781194375093
2084903527,3,-0.19605,9.0,-1.6140001,1781194375103
2084903537,3,-0.06705,8.707951,-1.4970001,1781194375113
2084903547,3,0.031050002,8.409,-1.3980001,1781194375123
2084903557,3,0.13605,8.200951,-1.3480501,1781194375133
2084903567,3,0.21000001,8.0449505,-1.4250001,1781194375143
2084903577,3,0.28395,7.9950004,-1.60395,1781194375153
2084903587,3,0.32295,7.9729505,-1.8559501,1781194375163
2084903597,3,0.39195,7.96605,-2.0740502,1781194375173
2084903607,3,0.44205,7.97805,-2.2150502,1781194375183
2084903617,3,0.47595003,7.9489503,-2.2699502,1781194375193
2084903627,3,0.48105,7.9279504,-2.2480502,1781194375203
2084903637,3,0.45705003,7.9570503,-2.1979501,1781194375214
2084903647,3,0.40695003,8.055,-2.14995,1781194375224
2084903658,3,0.36600003,8.244,-2.22405,1781194375234
2084903668,3,0.36105,8.433001,-2.3779502,1781194375244
2084903678,3,0.39000002,8.59605,-2.5810502,1781194375254
2084903688,3,0.43800002,8.715,-2.7510002,1781194375264
2084903698,3,0.423,8.81595,-2.811,1781194375275
2084903708,3,0.39495003,8.845051,-2.8300502,1781194375284
2084903718,3,0.36600003,8.890051,-2.8230002,1781194375294
2084903728,3,0.34695002,8.895,-2.8180501,1781194375304
2084903738,3,0.30600002,8.919001,-2.8590002,1781194375314
2084903748,3,0.31095,9.015,-3.00195,1781194375324
2084903758,3,0.31305,9.1390505,-3.1699502,1781194375335
2084903768,3,0.354,9.26895,-3.3739502,1781194375344
2084903778,3,0.43500003,9.28995,-3.4480503,1781194375355
2084903789,3,0.591,9.172951,-3.4620001,1781194375365
2084903799,3,0.69405,9.027,-3.52905,1781194375375
2084903809,3,0.85200006,8.878051,-3.5719502,1781194375385
2084903819,3,0.99600005,8.73705,-3.6850502,1781194375395
2084903829,3,1.1560501,8.610001,-3.8070002,1781194375405
2084903839,3,1.28505,8.514,-3.99795,1781194375415
2084903849,3,1.455,8.45205,-4.149,1781194375425
2084903859,3,1.6660501,8.389951,-4.23105,1781194375435
2084903869,3,1.8690001,8.44695,-4.2979503,1781194375445
2084903879,3,2.1019502,8.656051,-4.36695,1781194375455
2084903889,3,2.29095,8.94495,-4.518,1781194375465
2084903899,3,2.3749502,9.22305,-4.6140003,1781194375475
2084903909,3,2.3770502,9.561001,-4.6639504,1781194375486
2084903919,3,2.36295,9.82905,-4.683,1781194375495
2084903930,3,2.29605,9.8550005,-4.6740003,1781194375506
2084903940,3,2.12595,9.67605,-4.6470003,1781194375516
2084903950,3,1.845,9.496051,-4.52295,1781194375525
2084903960,3,1.5840001,9.331051,-4.5079503,1781194375536
2084903970,3,1.2970501,9.205951,-4.7410502,1781194375547
2084903980,3,1.05795,9.175051,-4.89405,1781194375556
2084903990,3,0.89295006,9.172951,-4.9009504,1781194375566
2084904000,3,0.92100006,9.20205,-4.79295,1781194375576
2084904010,3,0.95505005,9.288,-4.5679502,1781194375586
2084904020,3,0.90705,9.43095,-4.27395,1781194375596
2084904030,3,0.735,9.55605,-3.9889503,1781194375605
2084904040,3,0.45705003,9.625051,-3.7879503,1781194375617
2084904050,3,0.14805001,9.597,-3.4480503,1781194375627
2084904061,3,-0.20505,9.534,-3.1699502,1781194375637
2084904071,3,-0.45195,9.43095,-2.976,1781194375647
2084904081,3,-0.62895006,9.38805,-2.868,1781194375657
2084904091,3,-0.78000003,9.37395,-2.8470001,1781194375667
2084904101,3,-0.88995004,9.382951,-2.91105,1781194375677
2084904111,3,-0.92595005,9.394951,-3.03795,1781194375687
2084904121,3,-0.88995004,9.26595,-3.144,1781194375697
2084904131,3,-0.81405,9.0720005,-3.2320502,1781194375707
2084904141,3,-0.66705,8.811001,-3.25395,1781194375717
2084904151,3,-0.54795,8.61495,-3.213,1781194375727
2084904161,3,-0.49305,8.6320505,-3.1009502,1781194375737
2084904171,3,-0.40395,8.6629505,-3.012,1781194375747
2084904181,3,-0.27,8.73705,-2.9190001,1781194375757
2084904192,3,-0.052050002,8.821051,-2.9520001,1781194375768
2084904202,3,0.18900001,9.0,-3.1720502,1781194375778
2084904212,3,0.50205004,9.27795,-3.3979502,1781194375788
2084904222,3,0.89295006,9.534,-3.8160002,1781194375798
2084904232,3,1.3069501,9.658951,-3.9820502,1781194375808
2084904242,3,1.6969501,9.868951,-4.0219502,1781194375818
2084904252,3,1.9750501,9.931951,-3.9840002,1781194375828
2084904262,3,2.1730502,9.958051,-3.864,1781194375838
2084904272,3,2.3359501,10.11795,-3.7090502,1781194375848
2084904282,3,2.4510002,10.03905,-3.867,1781194375858
2084904292,3,2.4799502,9.937051,-4.09695,1781194375868
2084904302,3,2.46105,9.8550005,-4.33605,1781194375878
2084904312,3,2.47305,9.7900505,-4.341,1781194375888
2084904322,3,2.3749502,9.819,-4.137,1781194375899
2084904333,3,2.1450002,9.823951,-3.8140502,1781194375908
2084904343,3,1.9240501,9.67605,-3.6030002,1781194375919
2084904353,3,1.644,9.4480505,-3.4309502,1781194375929
2084904363,3,1.383,9.148951,-3.28695,1781194375939
2084904373,3,1.11,8.919001,-3.1339502,1781194375949
2084904383,3,0.85905004,8.79705,-3.10995,1781194375959
2084904393,3,0.62205005,8.7949505,-3.14895,1781194375969
2084904403,3,0.43305,8.8279505,-3.2989502,1781194375979
2084904413,3,0.294,8.835,-3.3709502,1781194375989
2084904423,3,0.15495001,8.811001,-3.4120502,1781194375999
2084904433,3,0.08805001,8.833051,-3.35205,1781194376010
2084904443,3,0.079050004,8.920951,-3.2989502,1781194376019
2084904453,3,0.17205001,9.019951,-3.2590501,1781194376030
2084904464,3,0.27705002,9.084001,-3.27795,1781194376040
2084904474,3,0.36600003,9.10095,-3.2250001,1781194376050
2084904484,3,0.41595003,9.156,-3.012,1781194376061
2084904494,3,0.40695003,9.261001,-2.6790001,1781194376070
2084904504,3,0.39000002,9.42405,-2.394,1781194376080
2084904514,3,0.38295,9.597,-2.18805,1781194376090
2084904524,3,0.41595003,9.766951,-2.16,1781194376101
2084904534,3,0.483,9.92205,-2.3440502,1781194376110
2084904544,3,0.59295005,10.059,-2.7250502,1781194376120
2084904554,3,0.69900006,10.107,-2.9550002,1781194376131
2084904564,3,0.76995003,10.035001,-3.04095,1781194376141
2084904574,3,0.80205005,9.903001,-3.0700502,1781194376151
2084904584,3,0.82605004,9.76395,-3.0979502,1781194376160
2084904594,3,0.82800007,9.655951,-3.1680002,1781194376171
2084904605,3,0.81105006,9.622951,-3.31095,1781194376180
2084904615,3,0.79905003,9.637051,-3.4360502,1781194376191
2084904625,3,0.79005,9.5130005,-3.4740002,1781194376201
2084904635,3,0.74205005,9.28995,-3.3979502,1781194376211
2084904645,3,0.72300005,9.040951,-3.24195,1781194376221
2084904655,3,0.68895006,8.919001,-3.141,1781194376231
2084904665,3,0.67005,8.814,-3.0259502,1781194376240
2084904675,3,0.59295005,8.698951,-2.8969502,1781194376251
2084904685,3,0.54795,8.67195,-2.7220502,1781194376262
2084904695,3,0.52905005,8.78295,-2.538,1781194376271
2084904705,3,0.58095,9.130051,-2.4420002,1781194376281
2084904715,3,0.77805007,9.678,-2.595,1781194376291
2084904725,3,1.0699501,10.233001,-2.9569502,1781194376303
2084904736,3,1.4580001,10.614,-3.3760502,1781194376312
2084904746,3,1.728,11.074051,-3.5839503,1781194376322
2084904756,3,1.932,11.1,-3.69705,1781194376332
2084904766,3,2.0680501,10.86495,-3.591,1781194376342
2084904776,3,2.02305,10.24995,-3.4480503,1781194376352
2084904786,3,1.8169501,9.90495,-3.3349502,1781194376362
2084904796,3,1.60395,9.880951,-3.2659502,1781194376372
2084904806,3,1.47,10.02495,-3.41895,1781194376382
2084904816,3,1.4239501,10.132951,-3.7090502,1781194376392
2084904826,3,1.4239501,10.272,-3.9510002,1781194376402
2084904836,3,1.4070001,10.36305,-4.1010003,1781194376412
2084904846,3,1.31895,10.47795,-4.1610003,1781194376422
2084904856,3,1.16295,10.48995,-4.0680003,1781194376432
2084904867,3,0.957,10.37895,-3.9120002,1781194376442
2084904877,3,0.72300005,10.24995,-3.6420002,1781194376452
2084904887,3,0.62700003,10.111051,-3.2350502,1781194376463
2084904897,3,0.53805,10.011001,-2.80905,1781194376473
2084904907,3,0.46905002,10.00395,-2.526,1781194376483
2084904917,3,0.41400003,9.99195,-2.466,1781194376493
2084904927,3,0.39000002,10.189951,-2.4810002,1781194376503
2084904937,3,0.44505003,10.425,-2.4709501,1781194376513
2084904947,3,0.48105,10.5730505,-2.3490002,1781194376524
2084904957,3,0.47400004,10.597051,-2.1090002,1781194376533
2084904967,3,0.41805002,10.52295,-1.83405,1781194376543
2084904977,3,0.31800002,10.474951,-1.7569501,1781194376552
2084904987,3,0.10695001,10.413,-1.899,1781194376563
2084904997,3,-0.081,10.252951,-2.1019502,1781194376573
2084905008,3,-0.354,9.9199505,-2.3460002,1781194376584
2084905018,3,-0.56205004,9.465,-2.3130002,1781194376594
2084905028,3,-0.77295005,9.016951,-2.26305,1781194376604
2084905038,3,-0.90900004,8.574,-2.3029501,1781194376613
2084905048,3,-0.933,8.194051,-2.46105,1781194376623
2084905058,3,-0.97905004,7.8630004,-2.631,1781194376635
2084905068,3,-1.05495,7.4659505,-2.77305,1781194376644
2084905078,3,-1.29495,7.2000003,-2.835,1781194376655
2084905088,3,-1.5169501,7.0870504,-2.8489501,1781194376664
2084905098,3,-1.6870501,7.011,-2.8879502,1781194376674
2084905108,3,-1.8499501,7.0249505,-2.9569502,1781194376684
2084905118,3,-1.9789501,7.1329503,-3.072,1781194376694
2084905128,3,-1.9720501,7.25505,-3.0700502,1781194376704
2084905139,3,-1.659,7.353,-2.9950502,1781194376715
2084905149,3,-1.3879501,7.6860003,-2.8920002,1781194376725
2084905159,3,-1.1869501,7.9399505,-3.0000002,1781194376735
2084905169,3,-0.90405005,8.068951,-2.976,1781194376745
2084905179,3,-0.57600003,8.17395,-2.904,1781194376755
2084905189,3,-0.30105,8.2890005,-3.00705,1781194376765
2084905199,3,-0.09,8.47605,-3.25605,1781194376775
2084905209,3,0.13095,8.557051,-3.4330502,1781194376785
2084905219,3,0.38505003,8.823,-3.4789503,1781194376795
2084905229,3,0.69105005,9.37905,-3.4050002,1781194376805
2084905239,3,0.97200006,10.2619505,-3.3949502,1781194376815
2084905249,3,1.33305,11.787001,-2.80905,1781194376825
2084905259,3,1.6110001,12.661051,-3.03795,1781194376835
2084905269,3,1.8139501,12.87195,-3.5410502,1781194376846
2084905280,3,1.9120501,12.43395,-4.065,1781194376856
2084905290,3,2.04705,11.409,-4.5079503,1781194376866
2084905300,3,2.0629501,10.435051,-4.82205,1781194376875
2084905310,3,2.02305,9.53205,-4.55205,1781194376886
2084905320,3,2.0059502,8.76795,-4.08195,1781194376896
2084905330,3,2.061,8.16195,-3.9840002,1781194376906
2084905340,3,2.14995,7.8250504,-4.0680003,1781194376916
2084905350,3,2.3149502,7.7389503,-4.18305,1781194376926
2084905360,3,2.6520002,7.8889503,-4.50105,1781194376936
2084905370,3,2.976,8.32005,-4.9440002,1781194376948
2084905380,3,2.90805,8.96205,-4.9939504,1781194376956
2084905390,3,3.351,9.670951,-4.7239504,1781194376967
2084905400,3,3.8569503,9.915001,-4.57095,1781194376977
2084905411,3,3.7920003,9.43395,-4.02705,1781194376987
2084905421,3,3.2700002,9.30405,-3.6079502,1781194377002
2084905431,3,2.9850001,9.4480505,-3.7900503,1781194377007
2084905441,3,2.76195,9.39795,-3.9769502,1781194377017
2084905451,3,2.50395,9.0390005,-4.0939503,1781194377027
2084905461,3,2.2120502,8.578951,-3.6370502,1781194377037
2084905471,3,1.9579501,8.09805,-3.1939502,1781194377047
2084905481,3,1.7310001,7.9129505,-3.21795,1781194377057
2084905491,3,1.5990001,8.043,-3.52005,1781194377067
2084905501,3,1.52505,8.44695,-4.05405,1781194377077
2084905511,3,1.28805,8.854051,-4.4770503,1781194377087
2084905521,3,0.91395,9.558001,-4.5540004,1781194377098
2084905531,3,0.36600003,10.62405,-4.5349503,1781194377107
2084905542,3,-0.21705002,11.670001,-4.67805,1781194377118
2084905552,3,-0.675,12.321001,-4.97805,1781194377128
2084905562,3,-0.984,12.324,-5.17395,1781194377138
2084905572,3,-1.24905,11.83005,-5.10195,1781194377148
2084905582,3,-1.4809501,10.93305,-4.6189504,1781194377158
2084905592,3,-1.6369501,9.88395,-4.0459504,1781194377168
2084905602,3,-1.7380501,8.851951,-3.4720502,1781194377178
2084905612,3,-1.7380501,8.04,-3.0889502,1781194377188
2084905622,3,-1.5649501,7.3560004,-2.9880002,1781194377198
2084905632,3,-1.3429501,7.18095,-3.1600502,1781194377208
2084905642,3,-0.98805004,7.116,-3.6799502,1781194377218
2084905652,3,-0.63195,7.3170004,-4.4560504,1781194377228
2084905662,3,-0.43995002,7.518,-5.0209503,1781194377238
2084905672,3,-0.33495003,7.6380005,-5.1330004,1781194377249
2084905683,3,-0.246,8.11695,-4.77705,1781194377259
2084905693,3,0.076050006,8.979,-4.42005,1781194377268
2084905703,3,0.38700002,10.012951,-4.683,1781194377278
2084905713,3,0.93795,10.627951,-4.9680004,1781194377288
2084905723,3,1.47,10.73595,-3.7369502,1781194377298
2084905733,3,1.64205,10.233001,-3.048,1781194377309
2084905743,3,1.29495,10.147051,-2.35095,1781194377318
2084905753,3,1.1220001,10.2960005,-2.2669501,1781194377329
2084905763,3,1.1770501,10.52805,-2.9620502,1781194377339
2084905773,3,1.338,10.55895,-4.42695,1781194377349
2084905783,3,1.3950001,10.36005,-5.1139503,1781194377359
2084905793,3,1.386,9.501,-4.8510003,1781194377369
2084905803,3,1.09095,8.689051,-4.1010003,1781194377380
2084905814,3,0.79395,8.00895,-3.55995,1781194377390
2084905824,3,0.40395,7.59495,-3.4410002,1781194377400
2084905834,3,0.16995001,7.3510504,-3.7729502,1781194377410
2084905844,3,-0.052050002,7.2910504,-4.092,1781194377420
2084905854,3,-0.29895002,7.3720503,-4.57095,1781194377430
2084905864,3,-0.52095,7.7509503,-5.1259503,1781194377441
2084905874,3,-0.76995003,8.434951,-5.55495,1781194377450
2084905884,3,-0.99300003,9.08895,-5.64795,1781194377461
2084905894,3,-1.10595,9.726001,-5.655,1781194377470
2084905904,3,-1.2229501,10.51095,-5.5519505,1781194377481
2084905914,3,-1.2280501,11.019,-5.373,1781194377491
2084905924,3,-1.20105,11.281951,-5.1880503,1781194377500
2084905934,3,-1.1580001,11.277,-4.7140503,1781194377511
2084905945,3,-1.09605,10.806001,-4.27395,1781194377520
2084905955,3,-1.0819501,10.111051,-3.8359501,1781194377531
2084905965,3,-1.04595,9.51795,-3.4980001,1781194377540
2084905975,3,-1.1730001,9.168,-3.5100002,1781194377551
2084905985,3,-1.31595,9.016951,-3.7810502,1781194377561
2084905995,3,-1.40205,9.03195,-4.00605,1781194377571
2084906005,3,-1.503,9.010051,-4.314,1781194377581
2084906015,3,-1.5270001,8.983951,-4.5349503,1781194377591
2084906025,3,-1.55595,8.988001,-4.6420503,1781194377601
2084906035,3,-1.4929501,9.015,-4.8559504,1781194377611
2084906045,3,-1.2709501,9.0390005,-5.0350504,1781194377622
2084906055,3,-0.96195006,8.839951,-5.181,1781194377631
2084906065,3,-0.66,8.466001,-5.11695,1781194377641
2084906075,3,-0.42795002,8.083051,-4.899,1781194377651
2084906086,3,-0.21000001,7.83195,-4.77405,1781194377662
2084906096,3,-0.08295,7.7790003,-4.743,1781194377672
2084906106,3,-0.009000001,8.043,-4.8840003,1781194377682
2084906116,3,0.055050004,8.401951,-5.30595,1781194377692
2084906126,3,0.14595,8.91705,-5.7850504,1781194377702
2084906136,3,0.23700002,9.321,-6.012,1781194377712
2084906146,3,0.25305,9.42405,-5.6790004,1781194377722
2084906156,3,0.24405001,9.24195,-4.9420505,1781194377732
2084906166,3,0.24105,8.94495,-4.1350503,1781194377742
2084906176,3,0.26805001,8.74695,-3.5530503,1781194377752
2084906186,3,0.30600002,8.60805,-3.2299502,1781194377762
2084906196,3,0.39495003,8.434951,-3.249,1781194377772
2084906206,3,0.50505,8.194051,-3.28695,1781194377782
2084906217,3,0.66,7.9879503,-3.321,1781194377792
2084906227,3,0.80895007,7.866,-3.3019502,1781194377803
2084906237,3,0.97605,7.9249506,-3.318,1781194377813
2084906247,3,1.125,8.422951,-3.6010501,1781194377823
2084906257,3,1.28505,9.087001,-4.3099504,1781194377833
2084906267,3,1.4119501,9.460051,-5.169,1781194377843
2084906277,3,1.47405,9.525001,-5.82495,1781194377853
2084906287,3,1.4620501,9.61305,-6.09105,1781194377863
2084906297,3,1.28295,9.55305,-5.7990003,1781194377873
2084906307,3,1.1560501,9.538951,-5.1070504,1781194377883
2084906317,3,1.01205,9.89295,-4.42005,1781194377893
2084906327,3,0.78495,9.988951,-4.36695,1781194377903
2084906337,3,0.51405,9.89805,-4.4770503,1781194377914
2084906347,3,0.31605002,9.783,-4.518,1781194377923
2084906358,3,0.0,9.71595,-4.506,1781194377934
2084906368,3,-0.18900001,9.514951,-4.293,1781194377944
2084906378,3,-0.31305,9.108001,-3.73305,1781194377954
2084906388,3,-0.41595003,8.931001,-3.072,1781194377964
2084906398,3,-0.54105,9.03405,-2.7970502,1781194377974
2084906408,3,-0.55305004,9.369,-2.97105,1781194377983
2084906418,3,-0.41400003,9.927,-3.627,1781194377993
2084906428,3,-0.15795001,10.285951,-4.5079503,1781194378004
2084906438,3,0.069000006,10.50405,-5.0830503,1781194378014
2084906448,3,0.28905,10.38195,-5.36595,1781194378025
2084906458,3,0.41595003,10.16205,-5.3179502,1781194378034
2084906468,3,0.555,9.9199505,-5.1259503,1781194378044
2084906478,3,0.66705,9.324,-4.767,1781194378054
2084906489,3,0.66495,8.70405,-4.188,1781194378064
2084906499,3,0.59805006,8.30595,-3.69405,1781194378075
2084906509,3,0.53295004,8.404051,-3.5080502,1781194378085
2084906519,3,0.48600003,9.024,-3.6469502,1781194378095
2084906529,3,0.49305,9.51,-4.08495,1781194378105
2084906539,3,0.44505003,9.481951,-4.2709503,1781194378115
2084906549,3,0.363,9.11505,-4.0609503,1781194378125
2084906559,3,0.28905,8.457001,-3.6679502,1781194378135
2084906569,3,0.20295002,8.27505,-3.15105,1781194378146
2084906579,3,0.15795001,8.538,-2.8969502,1781194378154
2084906589,3,0.08295,9.007951,-3.072,1781194378164
2084906599,3,0.0139500005,9.331051,-3.2950501,1781194378175
2084906609,3,-0.021000002,9.20895,-3.4429502,1781194378185
2084906620,3,-0.08595,8.884951,-3.7540503,1781194378196
2084906630,3,-0.14595,8.96205,-3.9409502,1781194378205
2084906640,3,-0.19800001,9.40995,-4.1130004,1781194378215
2084906650,3,-0.31305,9.913051,-4.3770003,1781194378225
2084906660,3,-0.51705,10.32705,-4.7190003,1781194378236
2084906670,3,-0.65295005,10.461,-4.87995,1781194378246
2084906680,3,-0.684,10.33605,-4.92705,1781194378256
2084906690,3,-0.73905003,10.165951,-4.9939504,1781194378265
2084906700,3,-0.80595005,10.16205,-4.9110003,1781194378276
2084906710,3,-0.69405,10.04205,-4.8439503,1781194378286
2084906720,3,-0.555,9.634951,-4.73595,1781194378296
2084906730,3,-0.35895002,9.08205,-4.6639504,1781194378306
2084906740,3,-0.15495001,8.44695,-4.4940004,1781194378316
2084906750,3,0.021000002,7.9180503,-4.1730003,1781194378327
2084906761,3,0.08595,7.5349503,-3.8260503,1781194378336
2084906771,3,0.093,7.4779506,-3.6510003,1781194378347
2084906781,3,0.13800001,7.7550006,-3.6490502,1781194378357
2084906791,3,0.049950004,8.083051,-3.8430002,1781194378367
2084906801,3,0.14295001,8.076,-3.9049501,1781194378377
2084906811,3,0.26505002,7.9180503,-3.7879503,1781194378387
2084906821,3,0.36795002,7.8580503,-3.69195,1781194378397
2084906831,3,0.411,7.9489503,-3.7140002,1781194378407
2084906841,3,0.46905002,7.9110003,-3.65805,1781194378417
2084906851,3,0.41595003,7.7410502,-3.3760502,1781194378427
2084906861,3,0.13800001,7.662,-3.1699502,1781194378437
2084906871,3,-0.04695,7.9950004,-3.01005,1781194378447
2084906881,3,-0.18105,8.698951,-3.1750503,1781194378458
2084906892,3,-0.19095,9.40995,-3.8140502,1781194378468
2084906902,3,-0.08295,9.92205,-4.39305,1781194378478
2084906912,3,0.049950004,9.8220005,-4.75995,1781194378488
2084906922,3,0.141,9.08895,-4.75995,1781194378498
2084906932,3,0.165,8.200951,-4.09695,1781194378508
2084906942,3,0.20295002,7.7080503,-3.5050502,1781194378518
2084906952,3,0.29595003,7.5660005,-3.21795,1781194378528
2084906962,3,0.36795002,8.172,-3.38805,1781194378538
2084906972,3,0.38700002,9.934051,-4.056,1781194378549
2084906982,3,0.30105,12.196951,-5.2909503,1781194378559
2084906992,3,0.63195,13.308001,-6.1150503,1781194378568
2084907002,3,1.197,13.996951,-6.5509505,1781194378579
2084907012,3,1.95105,13.305,-6.5839505,1781194378588
2084907022,3,2.38905,11.578951,-6.2509503,1781194378599
2084907033,3,2.4490502,10.0990505,-4.8910503,1781194378609
2084907043,3,2.367,9.40995,-3.5080502,1781194378618
2084907053,3,2.15205,9.58005,-2.71005,1781194378628
2084907063,3,2.01495,9.37905,-3.1270502,1781194378639
2084907073,3,1.83105,9.22095,-3.8140502,1781194378649
2084907083,3,1.7689501,8.751,-4.34595,1781194378659
2084907093,3,1.67805,8.091001,-4.6399503,1781194378669
2084907103,3,1.5150001,7.49205,-4.5370502,1781194378679
2084907113,3,1.3240501,7.0920005,-4.3240504,1781194378689
2084907123,3,1.1340001,6.77895,-4.137,1781194378699
2084907133,3,0.97395,6.477,-3.89805,1781194378709
2084907143,3,0.75405,6.1750503,-3.7060502,1781194378719
2084907153,3,0.48600003,6.063,-3.38595,1781194378730
2084907164,3,0.25800002,6.5149503,-3.0529501,1781194378740
2084907174,3,0.31800002,7.9230003,-2.91105,1781194378751
2084907184,3,0.33900002,10.1640005,-4.2450004,1781194378759
2084907194,3,0.47595003,11.47605,-5.5360503,1781194378770
2084907204,3,0.67695004,12.046051,-6.63,1781194378781
2084907214,3,0.84900004,12.349951,-6.7660503,1781194378790
2084907224,3,0.92805004,12.333,-6.4810505,1781194378800
2084907234,3,0.78195006,12.016951,-5.643,1781194378810
2084907244,3,0.64605004,11.74695,-4.7310004,1781194378820
2084907254,3,0.55695003,10.930051,-4.0030503,1781194378831
2084907264,3,0.38295,9.87405,-3.3780003,1781194378840
2084907274,3,0.29895002,9.14595,-3.0700502,1781194378851
2084907284,3,0.294,8.48295,-3.10995,1781194378860
2084907295,3,0.25305,7.9609504,-3.1390502,1781194378871
2084907305,3,0.351,7.5730505,-3.1390502,1781194378880
2084907315,3,0.28695002,7.2619505,-3.1390502,1781194378891
2084907325,3,0.13605,7.32,-3.25605,1781194378901
2084907335,3,-0.00405,7.6170006,-3.6180003,1781194378910
2084907345,3,-0.105000004,7.7479506,-4.1520004,1781194378921
2084907355,3,-0.20805001,7.5160503,-4.26405,1781194378931
2084907365,3,-0.294,6.9990005,-3.7879503,1781194378942
2084907375,3,-0.32700002,6.69705,-3.3589501,1781194378951
2084907385,3,-0.31605002,7.0920005,-3.1720502,1781194378961
2084907395,3,-0.37995002,8.27505,-3.6319501,1781194378971
2084907405,3,-0.48105,9.661051,-4.518,1781194378982
2084907415,3,-0.423,10.2960005,-4.9110003,1781194378992
2084907425,3,-0.33195,10.474951,-4.8460503,1781194379001
2084907436,3,-0.26505002,10.959001,-4.5160503,1781194379012
2084907446,3,-0.06705,11.703001,-4.434,1781194379024
2084907456,3,0.076050006,12.450001,-4.5799503,1781194379032
2084907466,3,0.411,12.450001,-4.70205,1781194379042
2084907476,3,0.78495,12.15795,-4.5589504,1781194379052
2084907486,3,0.97905004,11.670001,-4.4700003,1781194379062
2084907496,3,1.0860001,10.758,-4.362,1781194379072
2084907506,3,1.146,9.64395,-4.08195,1781194379082
2084907516,3,1.1890501,8.74695,-3.6130502,1781194379092
2084907526,3,1.1890501,7.9129505,-3.3349502,1781194379102
2084907536,3,1.149,7.2499504,-3.24195,1781194379112
2084907546,3,1.07505,6.5940003,-3.2299502,1781194379122
2084907556,3,0.8880001,6.0750003,-3.27795,1781194379132
2084907567,3,0.71805006,5.8350005,-3.3259501,1781194379143
2084907577,3,0.59595,5.7970505,-3.7110002,1781194379153
2084907587,3,0.46905002,6.0270004,-4.1130004,1781194379163
2084907597,3,0.21495001,6.39795,-4.3219504,1781194379173
2084907607,3,0.025950002,6.7879505,-4.5370502,1781194379183
2084907617,3,-0.07395,7.5109506,-4.53,1781194379193
2084907627,3,-0.078,8.713051,-4.7119503,1781194379203
2084907637,3,0.049950004,10.308001,-5.1880503,1781194379213
2084907647,3,0.19095,12.076951,-5.361,1781194379223
2084907657,3,0.43995002,13.04205,-5.2579503,1781194379233
2084907667,3,0.804,13.33905,-4.7959504,1781194379244
2084907677,3,1.01505,12.847951,-4.065,1781194379253
2084907687,3,1.1010001,12.048,-3.6780002,1781194379263
2084907698,3,1.12695,11.107051,-3.38595,1781194379273
2084907708,3,1.1200501,10.00395,-3.357,1781194379283
2084907718,3,1.065,9.022051,-3.084,1781194379293
2084907728,3,1.0000501,8.10705,-2.8849502,1781194379303
2084907738,3,0.864,7.31505,-2.7610502,1781194379314
2084907748,3,0.69405,6.8940005,-2.6860502,1781194379324
2084907758,3,0.54495,6.4459505,-2.9190001,1781194379334
2084907768,3,0.44205,6.096,-3.0580502,1781194379344
2084907778,3,0.39495003,6.1320004,-3.177,1781194379354
2084907788,3,0.294,6.735,-3.7450502,1781194379364
2084907798,3,0.24405001,8.038051,-4.623,1781194379374
2084907808,3,0.37305,9.163051,-5.48505,1781194379384
2084907818,3,0.45405003,10.107,-5.95695,1781194379394
2084907828,3,0.55995005,10.84395,-5.8300505,1781194379405
2084907839,3,0.66,11.644051,-5.47095,1781194379415
2084907849,3,0.84000003,11.93595,-4.86495,1781194379425
2084907859,3,0.89295006,11.878051,-4.27605,1781194379435
2084907869,3,0.897,11.055,-3.79695,1781194379445
2084907879,3,0.82095003,9.462001,-3.4840503,1781194379455
2084907889,3,0.65295005,8.48595,-2.80095,1781194379465
2084907899,3,0.55995005,8.184,-2.253,1781194379475
2084907909,3,0.40905002,8.49495,-2.28195,1781194379485
2084907919,3,0.32295,8.401951,-2.538,1781194379495
2084907929,3,0.25800002,8.02095,-2.6890502,1781194379505
2084907939,3,0.25800002,7.9249506,-2.98305,1781194379515
2084907949,3,0.28905,8.067,-3.5719502,1781194379525
2084907959,3,0.31305,8.28705,-4.2520504,1781194379536
2084907970,3,0.31995,8.74905,-4.611,1781194379545
2084907980,3,0.23700002,10.04895,-4.671,1781194379556
2084907990,3,0.29205,11.878051,-5.1400504,1781194379566
2084908000,3,0.411,12.819,-5.6860504,1781194379576
2084908010,3,0.6,12.465,-5.9659505,1781194379586
2084908020,3,0.71295005,10.798051,-5.8950005,1781194379596
2084908030,3,0.73695004,9.163051,-4.80105,1781194379607
2084908040,3,0.64095,7.8460503,-3.4000502,1781194379616
2084908050,3,0.43995002,7.0750504,-2.26005,1781194379626
2084908060,3,0.23700002,7.0320005,-1.5829501,1781194379636
2084908070,3,0.25305,7.5690002,-1.2090001,1781194379646
2084908080,3,0.246,7.9279504,-1.6020001,1781194379656
2084908090,3,0.22200002,8.056951,-2.64105,1781194379667
2084908100,3,0.28005,7.9920006,-3.58695,1781194379676
2084908111,3,0.351,7.6789503,-4.2499504,1781194379687
2084908121,3,0.33900002,7.79895,-4.3219504,1781194379697
2084908131,3,0.12195001,8.775001,-3.867,1781194379707
2084908141,3,0.08595,10.19295,-3.8839502,1781194379717
2084908151,3,0.11400001,11.200951,-4.0420504,1781194379727
2084908161,3,0.19800001,11.091001,-4.6810503,1781194379737
2084908171,3,0.39900002,10.144951,-5.346,1781194379747
2084908181,3,0.651,9.988951,-5.5480504,1781194379757
2084908191,3,0.83505005,9.691951,-5.7169504,1781194379767
2084908201,3,0.675,9.783,-5.1070504,1781194379777
2084908211,3,0.52605003,9.86505,-4.30695,1781194379787
2084908221,3,0.354,9.927,-3.8880002,1781194379798
2084908231,3,0.411,9.71895,-3.9550502,1781194379807
2084908242,3,0.52095,9.14595,-4.39305,1781194379818
2084908252,3,0.52395004,8.622001,-4.353,1781194379828
2084908262,3,0.53805,8.469001,-3.7210503,1781194379838
2084908272,3,0.47400004,8.65095,-3.2389503,1781194379848
2084908282,3,0.43005002,8.920951,-3.144,1781194379858
2084908292,3,0.45405003,8.96895,-3.4620001,1781194379868
2084908302,3,0.48795003,8.182051,-3.89805,1781194379878
2084908312,3,0.33195,7.2960005,-3.49305,1781194379888
2084908322,3,0.28395,6.4290004,-2.844,1781194379898
2084908332,3,0.052050002,6.1060505,-2.3419502,1781194379908
2084908342,3,-0.08805001,6.6010504,-1.983,1781194379919
2084908352,3,-0.069000006,8.347051,-2.1360002,1781194379928
2084908362,3,-0.14295001,10.07505,-3.3019502,1781194379939
2084908373,3,0.031050002,10.936951,-4.43205,1781194379949
2084908383,3,0.34905002,11.931001,-5.88,1781194379959
2084908393,3,0.59805006,13.224001,-6.7039504,1781194379969
2084908403,3,0.91605,14.442,-7.01805,1781194379979
2084908413,3,1.2610501,14.158051,-6.8209505,1781194379989
2084908423,3,1.31895,13.317,-5.9160004,1781194379999
2084908433,3,1.24695,11.55,-5.2840505,1781194380009
2084908443,3,0.85695004,9.86205,-4.1470504,1781194380021
2084908453,3,0.72300005,8.60805,-3.2899501,1781194380029
2084908463,3,0.50205004,7.9849505,-2.8230002,1781194380041
2084908473,3,0.21000001,8.068951,-3.117,1781194380049
2084908483,3,0.06705,8.232,-3.4450502,1781194380059
2084908493,3,0.24105,8.217,-3.8160002,1781194380069
